power (mW)	FWHM	peak value	peak location
26.895612	2.448291	427.191111	563.352009
26.538805	3.847314	929.626111	563.352009
26.634003	3.148195	890.790556	563.352009
26.230065	3.497776	844.673333	563.352009
25.961648	3.497776	924.771667	563.352009
26.419124	3.147803	987.879444	563.352009
26.316932	3.847793	859.236667	563.352009
27.116447	3.497776	771.856667	563.352009
27.472149	3.497776	771.856667	563.352009
27.610434	3.497776	1286.427778	563.352009
26.736252	3.847793	1257.301111	563.352009
27.163149	3.497776	1504.877778	563.352009
26.954662	3.497776	1504.877778	563.352009
27.228361	3.847314	1769.445000	563.352009
26.835118	4.197331	1684.492222	563.352009
26.647719	4.546826	1611.675556	563.352009
27.150661	4.197331	1752.454444	563.352009
26.998849	3.847314	2070.420556	563.352009
27.248685	3.847314	1861.679444	563.352009
27.102226	3.847314	1861.679444	563.352009
27.318481	3.847314	1997.603889	563.701765
27.281780	3.847314	2111.683333	563.701765
26.989351	3.847314	2228.190000	563.701765
26.858501	4.196809	2347.123889	563.701765
26.652729	4.546826	2097.120000	563.701765
26.385196	4.196809	2332.560556	563.701765
26.609298	3.847314	2788.878333	563.701765
26.441880	4.546826	2456.348889	563.701765
26.357726	3.847314	3101.990000	563.701765
26.050650	4.546826	2400.522778	563.701765
26.072574	4.196809	2881.112778	563.701765
25.993067	4.196809	3126.262222	563.701765
26.300272	4.196809	3065.581667	563.701765
26.102207	4.546260	3009.755556	563.701765
26.618459	4.896277	1567.985556	563.701765
26.611922	3.846835	3944.236111	564.051477
26.911089	4.546260	3713.650000	564.051477
26.848377	4.546260	3733.067778	564.051477
26.723431	4.546260	4203.948889	564.051477
26.592506	4.196286	4633.567222	564.051477
26.239434	4.196286	4075.306111	564.051477
26.626004	4.195763	4410.262778	564.401146
26.566345	3.846356	5330.180000	564.401146
26.388248	4.195763	5551.057222	564.401146
26.870705	4.195763	5551.057222	564.401146
26.914352	4.195763	6140.872222	564.401146
27.025144	3.845877	6213.688889	564.750771
26.681858	4.195240	6332.622778	564.750771
26.633919	4.195240	6570.490556	564.750771
26.803129	3.845397	8296.245556	564.750771
26.904279	3.845877	7864.200000	564.750771
26.703512	4.195240	8102.067778	564.750771
26.093881	4.545127	7837.500556	564.750771
26.319830	3.845397	10631.233333	564.750771
26.553099	3.845397	10694.341111	564.750771
26.227075	3.845397	10495.308889	565.100353
26.144517	3.845397	13706.523889	565.100353
25.752466	4.194717	13825.457778	565.100353
26.066963	3.844918	16784.241667	565.100353
26.384506	4.194717	15415.288333	565.100353
26.291395	3.844918	19548.847778	565.100353
26.652441	3.844918	18383.781111	565.100353
26.542073	4.194717	19332.825000	565.100353
26.847881	4.194717	19332.825000	565.100353
26.391514	3.844918	23585.318333	565.100353
26.588481	4.194717	21580.432778	565.100353
26.533746	3.495162	29760.171667	565.449891
26.638361	3.844438	31757.775556	565.449891
26.339470	3.844438	33333.042778	565.449891
26.296748	3.844438	41694.823333	565.449891
26.483637	3.494725	53697.437222	565.799385
26.762411	3.494725	57452.350000	565.799385
26.101433	3.494289	57437.786667	566.148836
26.034627	3.843958	55306.685556	565.799385
25.984323	3.494289	58845.575556	566.148836
25.647910	3.494289	56430.489444	566.148836
26.578905	3.494289	52345.474444	566.148836
26.386521	3.494289	49864.853333	566.148836
26.634892	3.494289	43032.222778	566.148836
26.610538	3.144664	40558.883333	566.148836
26.798691	3.494289	38570.988333	566.148836
26.578763	3.494289	35034.525556	566.148836
26.474482	3.494289	31592.724444	566.148836
26.110733	3.144664	28728.602222	566.148836
26.539286	3.493852	27153.335000	566.498243
26.393940	3.843478	20861.975000	566.148836
26.213831	3.493852	21830.436667	566.498243
25.943806	3.843478	18323.100556	566.498243
26.095047	3.493852	16417.731111	566.148836
26.502797	3.493852	16417.731111	566.148836
26.461518	3.843478	11905.525000	566.148836
26.284179	3.843478	11174.931111	566.148836
26.500653	3.494289	12041.449444	566.148836
26.434389	3.494289	10871.528333	566.148836
26.610892	3.843478	9820.541111	566.148836
26.579320	3.494289	8441.878889	566.148836
26.342597	3.144664	8043.814444	566.148836
26.454376	4.542859	6000.093333	565.799385
26.376664	3.843958	5762.225556	566.148836
26.320882	3.843958	5509.794444	566.148836
26.494472	3.843958	5509.794444	566.148836
26.555459	3.494289	4279.192778	566.148836
26.637034	3.843958	3402.965556	566.148836
26.568629	3.494289	3235.487222	566.148836
25.846883	3.494289	2531.592778	566.148836
25.971149	3.843958	2126.246667	566.148836
26.566137	3.494289	1776.726667	565.799385
26.857804	3.843958	1330.117778	566.148836
26.352792	3.494289	1325.263333	566.148836
