power (mW)	FWHM	peak value	peak location
0.597298	111.722329	94.661667	0.000000
0.590812	112.863927	95.875278	0.000000
0.593445	18.033457	88.593611	0.000000
0.596307	124.833024	104.370556	0.000000
0.594335	57.569943	94.661667	0.000000
0.587772	100.626981	110.438611	0.000000
0.566505	73.710998	109.225000	0.000000
0.563885	60.421951	87.380000	0.000000
0.568158	33.967911	100.729722	0.000000
0.560501	141.206447	116.506667	0.000000
0.589743	31.400901	121.361111	0.000000
0.594755	31.400901	121.361111	0.000000
0.610501	40.441339	131.070000	0.000000
0.612257	144.323217	100.729722	0.000000
0.585075	22.702771	145.633333	0.000000
0.571503	38.310930	121.361111	0.000000
0.574760	18.472041	139.565278	0.000000
0.580649	58.523964	171.119167	0.000000
0.589095	3.486407	173.546389	0.000000
0.586563	7.354908	188.109722	0.000000
0.586093	30.699265	182.041667	0.000000
0.618680	25.863946	235.440556	0.000000
0.618985	17.841909	220.877222	0.000000
0.635889	28.982295	226.945278	0.000000
0.606877	44.851015	231.799722	0.000000
0.606889	37.633413	240.295000	0.000000
0.601356	25.180624	250.003889	0.000000
0.599677	23.772836	299.761944	0.000000
0.601102	17.752529	283.985000	0.000000
0.610400	17.752529	283.985000	0.000000
0.612053	26.533071	300.975556	0.000000
0.629949	33.134924	343.451944	0.000000
0.648761	31.089015	348.306389	566.498243
0.651051	31.089015	348.306389	566.498243
0.660997	9.469162	370.151389	566.847607
0.687760	27.606301	404.132500	565.449891
0.704066	41.442685	389.569167	566.498243
0.716212	40.476964	381.073889	564.051477
0.735101	44.590918	424.763889	567.895435
0.773337	37.695034	475.735556	566.847607
0.773667	32.106741	502.435000	565.449891
0.798291	35.547235	501.221389	566.148836
0.805541	30.001573	544.911389	563.002209
0.811252	30.001573	544.911389	563.002209
0.828245	44.675214	523.066389	564.401146
0.855656	35.947707	523.066389	566.148836
0.850747	32.457753	549.765833	566.847607
0.853964	42.549091	535.202500	565.100353
0.876045	37.367089	541.270556	566.148836
0.890418	24.798375	598.310278	565.449891
0.900568	27.268770	623.796111	565.449891
0.913096	27.936516	745.157222	566.498243
0.930383	33.159907	696.612778	566.498243
0.956966	30.027940	717.244167	565.449891
0.971542	33.159907	722.098611	565.449891
0.982265	27.602852	779.138333	565.799385
1.010986	31.775689	608.019167	565.799385
1.033754	32.482167	796.128889	565.449891
1.040303	30.722394	790.060833	565.449891
1.050492	4.898714	1967.263611	562.302480
1.080803	6.647839	2000.031111	562.302480
1.098025	20.620041	1224.533611	562.652366
1.123273	4.198898	4150.550000	562.302480
1.111228	2.449510	5490.376667	562.302480
1.130255	4.198898	3510.976944	562.302480
1.158747	4.898714	3801.030000	562.302480
1.167409	4.549088	7258.608056	561.952550
1.176834	3.499517	7088.702500	561.952550
1.189262	3.149369	9589.955000	562.302480
1.196536	3.849229	6439.420556	562.302480
1.220131	4.199420	7639.681944	561.952550
1.214395	5.598529	2571.641944	562.302480
1.257831	4.198898	8178.525278	562.302480
1.255415	4.198898	8178.525278	562.302480
1.253799	3.149369	17891.055000	562.302480
1.248636	3.849229	5674.845556	562.302480
1.239185	3.849229	9846.026944	561.952550
1.255619	3.849229	23973.673889	562.302480
1.273985	3.849229	16626.472222	561.952550
1.289516	3.149369	39624.402778	561.952550
1.292313	3.849229	33763.874722	561.952550
1.312436	3.499517	39946.009722	561.952550
1.309243	3.499517	39946.009722	561.952550
1.320348	2.799613	28160.632222	561.952550
1.318261	3.499517	29905.805000	561.952550
1.355567	3.849229	63176.953611	562.302480
1.358544	3.149369	38865.895833	561.952550
1.348280	3.499517	35909.539167	561.952550
1.356636	3.849229	35256.616389	561.952550
1.357056	4.199420	35575.796111	561.952550
1.367626	3.499082	41640.210833	562.302480
1.384187	4.199420	22084.081389	561.952550
1.382507	3.499082	32347.590556	562.302480
1.397416	3.849229	32593.953611	561.952550
1.386044	3.849229	27837.811667	561.952550
1.392416	3.849229	30678.875278	561.952550
1.391348	3.499517	35239.625833	561.952550
1.367906	3.149369	42012.789444	561.952550
1.364433	3.149369	38990.897778	561.952550
1.388422	3.499517	46444.897222	561.952550
1.410059	3.499517	55309.112778	561.952550
1.444375	4.199420	48578.425556	561.952550
1.429913	3.849229	32816.044444	561.952550
1.454270	3.849229	45217.936389	561.952550
1.483374	3.499082	57281.230833	562.302480
