power (mW)	FWHM	peak value	peak location
0.166772	26.657445	118.933889	0.000000
0.167365	117.626474	93.448056	0.000000
0.163369	149.196638	106.797778	0.000000
0.159217	100.683561	101.943333	0.000000
0.159262	153.432129	101.943333	0.000000
0.159131	86.762299	97.088889	0.000000
0.157928	56.909896	93.448056	0.000000
0.159262	74.364498	94.661667	0.000000
0.161380	90.404097	126.215556	0.000000
0.164509	52.607581	105.584167	0.000000
0.162557	64.836504	109.225000	0.000000
0.167324	58.531718	99.516111	0.000000
0.169932	58.531718	99.516111	0.000000
0.181236	62.273639	111.652222	0.000000
0.184639	81.793065	103.156944	0.000000
0.185357	98.513194	118.933889	0.000000
0.184554	39.928210	106.797778	0.000000
0.195615	74.515782	114.079444	0.000000
0.198583	90.798910	97.088889	0.000000
0.201572	134.859696	92.234444	0.000000
0.207754	66.861585	95.875278	0.000000
0.216221	94.192641	99.516111	0.000000
0.228768	141.653182	103.156944	0.000000
0.241051	103.925949	111.652222	0.000000
0.247214	30.621820	89.807222	0.000000
0.241639	30.621820	89.807222	0.000000
0.236678	66.790753	108.011389	0.000000
0.235448	66.790753	108.011389	0.000000
0.235255	57.042780	112.865833	0.000000
0.237078	52.976888	117.720278	0.000000
0.241800	111.626794	94.661667	0.000000
0.259425	122.029990	112.865833	0.000000
0.264031	16.087710	105.584167	0.000000
0.277005	104.915486	109.225000	0.000000
0.272956	104.915486	109.225000	0.000000
0.279788	41.676840	110.438611	0.000000
0.282338	2.444014	128.642778	0.000000
0.291797	110.577657	144.419722	0.000000
0.311783	2.100232	211.168333	0.000000
0.313192	105.073810	131.070000	0.000000
0.308402	6.293643	207.527500	0.000000
0.315504	19.886162	148.060556	0.000000
0.338790	11.547667	140.778889	0.000000
0.340828	11.547667	140.778889	0.000000
0.353546	4.897496	1419.925000	563.002209
0.354354	6.995549	411.414167	563.002209
0.352069	6.645358	461.172222	563.352009
0.357443	4.897496	1273.078056	563.002209
0.367866	6.645358	894.431389	563.352009
0.375184	5.946588	777.924722	563.352009
0.376292	4.896886	1731.823056	563.352009
0.390649	6.645358	1405.361667	563.352009
0.397239	5.246990	4398.126667	563.352009
0.410573	4.897496	6217.329722	563.002209
0.419919	4.897496	7223.413333	563.002209
0.441898	5.246990	5235.518333	563.352009
0.444659	5.246990	6240.388333	563.352009
0.445009	4.896886	6697.919722	563.352009
0.447976	5.246990	6421.216389	563.352009
0.456456	5.246990	8605.716389	563.352009
0.467724	4.897496	13049.960278	563.002209
0.479679	4.547392	11234.398056	563.002209
0.500132	4.897496	14706.539444	563.002209
0.504733	4.897496	14792.705833	563.002209
0.499464	4.896886	11808.436111	563.352009
0.498220	5.246990	9655.490000	563.352009
0.514134	5.246990	14348.524167	563.002209
0.512962	5.246990	18539.123333	563.002209
0.537990	4.897496	22763.703611	563.002209
0.532845	5.246990	21136.251111	563.352009
0.533060	5.246990	20056.137222	563.002209
0.542362	4.547392	23173.904167	563.352009
0.546101	4.896886	23908.138889	563.352009
0.551924	4.547392	24455.477500	563.002209
0.551866	4.547392	23162.981667	563.352009
0.578464	4.547392	26053.803333	563.352009
0.595649	4.896886	20189.634444	563.352009
0.586567	4.547392	32183.753056	563.352009
0.591595	4.896886	24088.966944	563.352009
0.602877	5.246990	28093.883611	563.352009
0.611335	4.897496	35425.308333	563.002209
0.607824	4.547392	29870.610278	563.352009
0.602477	5.246990	29893.668889	563.002209
0.608295	4.897496	23711.533889	563.002209
0.613530	4.896886	26904.544722	563.352009
0.615330	4.896886	27073.236667	563.352009
0.623626	4.896886	24854.755556	563.352009
0.628690	4.896886	30087.846667	563.352009
0.634108	4.896886	29329.339722	563.352009
0.649084	4.547392	33905.867222	563.352009
0.646984	4.896886	30468.920556	563.352009
0.649013	4.896886	34867.047222	563.352009
0.639105	4.896886	29023.509722	563.352009
0.642467	4.896886	31482.285833	563.352009
0.647841	4.896886	33612.173333	563.352009
0.646283	4.896886	32409.484722	563.352009
0.640326	4.546826	36377.993056	563.352009
0.654153	4.896886	33057.553056	563.352009
0.656006	4.546826	33290.566389	563.352009
0.657398	4.546826	34216.551667	563.352009
0.654310	4.896886	35263.898056	563.352009
0.663203	4.896886	38470.258611	563.352009
0.667023	4.896886	32833.035000	563.352009
0.659122	4.896886	29376.670556	563.352009
0.656487	4.896886	33301.488889	563.352009
