power (mW)	FWHM	peak value	peak location
211.948180	9.449271	23342.596111	560.202248
215.987489	11.895376	20172.643889	560.202248
214.052526	5.241760	25116.895556	560.202248
212.533004	9.450444	20844.984444	560.202248
213.800906	11.895376	22636.274444	560.202248
219.385489	2.445238	24061.053889	560.202248
212.408509	11.544796	22211.510556	560.552395
222.786819	12.246000	21544.024444	560.202248
215.896312	11.895376	21692.085000	560.202248
211.935746	4.542859	26165.455556	560.202248
220.149313	11.895376	22468.796111	560.202248
213.484000	11.895376	22153.257222	560.202248
208.209898	2.095525	24609.606111	560.202248
216.790219	11.544796	22881.423889	560.202248
217.962405	11.895376	20912.946667	560.202248
225.253985	11.895376	20243.033333	560.202248
214.579771	11.895376	22289.181667	560.202248
214.089616	11.895376	22488.213889	560.202248
226.897164	11.195651	24182.415000	560.202248
224.453862	11.895376	20881.392778	560.552395
220.146030	11.546232	22340.153333	560.202248
217.652391	2.444932	21832.863889	560.202248
213.866192	11.546232	22289.181667	560.202248
212.615891	11.544796	23303.760556	560.202248
215.081219	11.895376	20645.952222	560.202248
224.432326	11.546232	21352.273889	560.202248
206.166669	11.544796	24124.161667	560.202248
220.819097	11.195651	21607.132222	560.202248
208.787596	12.246000	20255.169444	560.202248
220.222072	11.895376	19522.148333	560.202248
208.921637	11.895376	21238.194444	560.202248
213.354430	12.246000	20153.226111	560.202248
216.365419	12.246000	20529.445556	560.202248
200.264435	12.246000	18997.868333	560.202248
211.832416	11.895376	18573.104444	560.202248
204.998045	12.246000	19747.880000	560.202248
217.644427	2.444932	23330.460000	560.552395
205.612881	12.246000	19131.365556	560.202248
225.245115	4.892004	20985.763333	560.202248
218.099123	12.246000	19131.365556	560.202248
207.485515	12.246000	19626.518889	560.202248
210.444304	12.246000	18784.272778	560.202248
217.204750	2.445238	21621.695556	560.202248
231.356640	11.895376	20429.929444	560.552395
220.801192	12.246000	20827.993889	560.202248
222.722650	2.444932	23031.911667	560.202248
209.535472	11.895376	21376.546111	560.202248
219.386117	2.445238	22128.985000	560.202248
214.398815	11.546232	22063.450000	560.202248
216.611707	11.895376	19696.908333	560.202248
219.533546	2.794383	22277.045556	560.202248
219.746470	5.241760	24980.971111	560.202248
211.115670	12.246000	20014.874444	560.202248
204.417226	11.895376	20891.101667	560.202248
210.246211	2.444932	20927.510000	560.202248
213.875715	11.895376	20473.619444	560.552395
215.342315	4.892004	24738.248889	560.202248
213.539135	11.895376	20310.995556	560.202248
215.904554	11.194259	23260.070556	560.202248
211.384310	12.246000	19733.316667	560.202248
214.600656	11.195651	22471.223333	560.202248
210.474967	2.444932	22194.520000	560.202248
204.697321	12.246000	20141.090000	560.202248
205.314998	2.794383	21774.610556	560.202248
210.627518	4.892004	22823.170556	560.202248
212.370697	11.895376	20221.188333	560.552395
207.397645	5.242414	24308.630556	560.202248
211.741310	11.895376	20522.163889	560.202248
205.315580	11.895376	20529.445556	560.552395
212.056585	11.544796	21323.147222	560.202248
208.758819	12.246000	20505.173333	560.202248
221.080007	2.794383	22371.707222	560.202248
206.372607	9.450444	22689.673333	560.202248
208.361866	11.544796	22609.575000	560.202248
211.521029	12.246000	19995.456667	560.202248
207.025069	2.095787	20774.595000	560.202248
203.952752	2.444932	21934.807222	560.202248
213.299739	11.895376	19563.411111	560.202248
215.664901	11.895376	19645.936667	560.202248
207.927800	12.246000	19381.369444	560.202248
215.393864	12.246000	18427.471111	560.202248
214.216649	12.246000	19954.193889	560.202248
200.104457	10.845114	24648.441667	560.552395
201.323559	4.892615	23760.078333	560.202248
209.860782	2.444932	19354.670000	560.202248
205.537746	11.895376	19527.002778	560.202248
211.363122	2.445238	23007.639444	560.202248
210.463815	2.444932	21949.370556	560.202248
205.246220	11.195651	21672.667222	560.552395
201.014592	12.246000	19257.581111	560.202248
210.578390	11.895376	20187.207222	560.202248
211.700447	4.542859	24272.222222	560.202248
210.643234	11.895376	21296.447778	560.202248
212.558196	11.895376	20849.838889	560.202248
214.951042	11.895376	20716.341667	560.202248
214.687689	11.895376	21415.381667	560.202248
218.592794	12.246000	19857.105000	560.552395
215.297891	11.546232	21692.085000	560.202248
210.952294	12.246000	20730.905000	560.202248
215.582270	4.542859	24138.725000	560.202248
