power (mW)	FWHM	peak value	peak location
0.017522	122.545360	898.072222	538.761779
0.030308	76.136670	968.461667	554.944841
0.058751	125.577982	910.208333	540.172591
0.085929	90.152337	946.616667	541.230253
0.115549	101.582627	883.508889	541.582722
0.149344	157.358866	907.781111	539.819951
0.192745	118.619014	953.898333	540.877741
0.244461	103.450604	900.499444	538.761779
0.294920	150.406537	922.344444	543.344427
0.359205	137.275579	822.828333	540.525187
0.406567	120.592016	907.781111	538.761779
0.474839	95.115126	905.353889	542.992172
0.539923	153.703414	927.198889	542.992172
0.610915	157.521929	958.752778	545.457066
0.733193	148.550798	961.180000	543.344427
0.794408	131.051428	1017.006111	541.582722
0.920420	141.247067	1024.287778	542.992172
1.007654	90.341612	1063.123333	545.105066
1.073188	90.279550	1131.085556	539.467270
1.191820	86.874591	1194.193333	541.935148
1.303350	76.597432	1235.456111	564.750771
1.407733	79.928631	1317.981667	539.114546
1.510284	48.007406	1441.770000	541.935148
1.611812	37.638163	1497.596111	538.761779
1.745430	33.819704	1640.802222	543.696641
1.922735	33.134924	1621.384444	543.344427
2.020969	26.873756	1868.961111	562.302480
2.165000	23.395448	2012.167222	539.819951
2.298007	24.093808	2031.585000	539.467270
2.352810	20.609737	2286.443333	540.877741
2.668970	22.001481	2184.500000	539.819951
2.757299	21.311028	2398.095556	542.992172
2.894669	17.473551	2601.982222	562.302480
3.075359	17.125152	2735.479444	562.302480
3.216490	16.079692	3058.300000	544.048811
3.440573	14.685129	3247.623333	562.302480
3.461467	15.031961	3349.566667	541.230253
3.699504	13.288209	3538.890000	561.952550
3.915480	11.192866	4007.343889	542.992172
4.055535	12.588833	3973.362778	538.761779
4.178458	11.541923	4322.882778	561.952550
4.435878	10.843765	4572.886667	539.467270
4.565994	11.192866	4803.472778	540.172591
4.724778	11.192866	4801.045556	561.952550
4.775739	11.192866	4861.726111	544.048811
5.095100	11.541923	4808.327222	542.287532
5.256731	10.144169	5643.291667	561.952550
5.398842	9.794981	5871.450556	542.639873
5.462131	9.796199	6369.031111	561.952550
5.856327	10.144169	6029.220000	540.172591
6.068155	10.494620	6254.951667	542.287532
6.075897	9.445748	6937.001111	542.639873
6.449042	9.794981	6970.982222	542.639873
6.566926	9.445748	7274.385000	561.952550
6.727962	9.794981	7330.211111	543.344427
6.725063	10.144169	7104.479444	539.819951
6.975589	9.095341	7490.407778	542.287532
7.175842	10.144169	7429.727222	540.877741
7.283361	9.794981	8004.978889	542.639873
7.509444	9.095341	8444.306111	543.696641
7.688431	9.794981	8201.583889	542.992172
7.813473	9.793762	8063.232222	538.761779
7.993382	9.444573	8454.015000	542.639873
8.339600	9.444573	8415.179444	540.877741
8.348345	9.444573	9029.266667	538.761779
8.862960	9.443398	8546.249444	539.114546
8.762805	9.095341	9992.873889	562.652366
8.826204	9.793762	9216.162778	562.652366
9.267109	9.444573	9602.091111	538.761779
9.160275	9.094209	9890.930556	542.287532
9.289731	9.792543	9063.247778	563.002209
9.511482	10.141644	9196.745000	544.400939
9.616717	9.791323	8864.215556	539.467270
9.699222	9.443398	10009.864444	545.457066
9.681389	10.839715	8072.941111	542.992172
9.862487	10.489394	8713.727778	563.352009
9.988200	9.443398	9619.081667	539.467270
10.564499	11.537610	7560.797222	540.877741
10.740315	9.791323	9529.274444	563.352009
10.784844	9.791323	10247.732222	544.400939
10.669769	10.140381	9483.157222	540.877741
10.702199	11.536172	7873.908889	546.864636
10.901045	11.187290	8730.718333	539.467270
11.005569	11.534733	8143.330556	540.877741
11.222124	10.490701	9810.832222	539.819951
10.922691	11.185895	8187.020556	539.467270
11.263700	8.396745	10844.828889	540.525187
11.341818	22.674312	2878.685556	541.582722
11.382255	26.149435	2711.207222	540.525187
11.422842	27.540571	2621.400000	541.935148
11.616277	23.716327	2825.286667	538.761779
11.473464	23.366093	2980.628889	566.148836
11.720696	23.719311	2871.403889	541.935148
11.520141	23.716327	2864.122222	540.877741
11.818280	25.108220	2798.587222	542.287532
11.853153	25.108220	2922.375556	539.114546
11.934264	23.716327	2871.403889	544.400939
11.851662	26.146140	2815.577778	538.761779
11.799876	21.979414	2958.783889	542.287532
12.191710	24.066604	2776.742222	541.582722
