power (mW)	FWHM	peak value	peak location
0.300881	160.035062	871.372778	544.400939
0.413576	114.572788	934.480556	536.997309
0.407191	98.071777	890.790556	545.105066
0.411541	154.722130	856.809444	546.160937
0.524972	152.997329	963.607222	540.525187
0.668855	95.629437	934.480556	540.172591
0.753133	114.150002	1189.338889	542.639873
0.909278	23.041937	1534.004444	540.877741
1.073028	17.118735	1788.862778	543.696641
1.219148	11.188685	2150.518889	544.048811
1.395872	9.094209	2436.931111	544.400939
1.531716	8.045380	2944.220556	542.639873
1.729122	6.647012	3861.710556	541.935148
1.935507	6.296779	4470.943333	542.639873
2.226350	6.646186	5150.565556	539.114546
2.535763	6.295995	5776.788889	543.344427
2.754156	5.945848	6939.428333	542.287532
2.962144	5.945848	7407.882222	542.992172
3.403890	5.945108	8225.856111	540.877741
3.708546	5.945108	10429.773889	540.877741
4.057289	5.944367	11252.602222	542.992172
4.288323	5.944367	12308.443889	542.992172
4.540219	5.594350	13461.374444	541.582722
5.039737	6.293643	12738.062222	538.761779
5.332106	6.293643	15002.660556	545.457066
5.625416	5.943626	15655.583333	545.105066
5.833123	6.642875	15966.267778	564.750771
6.431650	6.292858	17199.296667	539.114546
6.758412	6.292074	19179.910000	542.639873
7.042033	5.942885	19386.223889	542.992172
7.757932	5.942885	20429.929444	543.696641
7.926081	6.292074	22541.612778	540.877741
8.284539	5.942144	23604.736111	542.992172
9.002474	6.291289	23437.257778	540.172591
9.619372	6.290503	27146.053333	543.696641
9.992483	6.290503	27184.888889	540.525187
10.571469	6.290503	30131.536667	544.048811
10.863889	19.595298	961.180000	540.525187
11.017007	59.384101	939.335000	541.582722
11.843057	139.338640	907.781111	538.408970
12.139881	140.527786	946.616667	539.819951
12.821616	49.291852	924.771667	543.344427
13.383892	74.653447	1004.870000	547.216422
14.071067	41.939055	917.490000	542.992172
14.519786	62.808620	910.208333	538.761779
14.842255	144.401659	985.452222	540.172591
15.871076	89.801273	919.917222	541.230253
16.024016	107.377437	927.198889	549.326236
16.163473	57.024769	924.771667	540.172591
17.366754	110.160550	939.335000	550.029164
17.380618	149.708867	1004.870000	542.639873
17.692878	140.305211	912.635556	545.457066
18.095225	50.258898	958.752778	541.935148
18.738047	59.116846	927.198889	542.992172
19.503671	108.945440	917.490000	541.230253
19.621928	134.366675	953.898333	539.114546
20.235456	110.548506	929.626111	539.819951
21.577760	110.124167	881.081667	539.467270
21.308510	40.235987	910.208333	538.408970
21.742115	112.963614	975.743333	539.114546
22.314640	156.858634	868.945556	547.568165
22.860990	67.612833	973.316111	539.114546
22.671474	100.161832	1019.433333	540.877741
24.235526	40.702035	820.401111	541.230253
24.223936	71.362147	861.663889	544.753024
24.707196	125.684483	825.255556	551.785731
25.770079	101.076981	774.283889	540.172591
25.381961	16.673233	881.081667	542.639873
25.592145	40.857523	873.800000	544.048811
25.726094	21.995708	890.790556	541.582722
26.849552	131.547035	856.809444	541.582722
27.015520	80.662255	844.673333	539.114546
27.320171	108.031951	832.537222	540.877741
28.539418	28.728816	796.128889	539.114546
27.245858	84.681766	864.091111	539.467270
28.742282	108.094051	798.556111	553.541223
28.883256	27.533627	837.391667	541.230253
29.224120	140.620962	861.663889	540.877741
30.207615	48.082230	798.556111	541.935148
29.920808	103.789756	871.372778	546.512808
29.635178	50.560726	851.955000	541.582722
30.669713	96.940225	883.508889	549.677721
30.415775	30.610157	847.100556	554.243119
30.768079	100.365912	861.663889	543.344427
31.066400	30.781507	876.227222	539.467270
31.516744	11.750287	825.255556	545.105066
32.278352	58.742072	898.072222	540.172591
32.087977	76.236351	781.565556	538.761779
32.624537	95.704269	839.818889	545.105066
32.604594	57.274908	808.265000	542.287532
32.512862	78.330465	844.673333	549.677721
32.543661	84.905500	839.818889	542.287532
34.198544	56.613406	830.110000	548.623136
33.040618	111.431419	864.091111	540.172591
32.761733	66.064912	883.508889	540.172591
33.353825	24.572150	847.100556	541.230253
33.513758	81.030146	805.837778	539.467270
33.222223	152.567110	902.926667	541.230253
33.810387	146.160587	861.663889	542.287532
33.559237	131.490346	873.800000	540.172591
