power (mW)	FWHM	peak value	peak location
0.141012	90.945712	779.138333	545.105066
0.158089	129.470120	796.128889	542.992172
0.171969	33.109592	839.818889	539.819951
0.186048	125.650723	827.682778	544.753024
0.213064	115.484620	805.837778	540.525187
0.245530	134.268431	825.255556	542.639873
0.282619	108.264689	878.654444	542.992172
0.330690	55.686871	781.565556	542.287532
0.386877	99.716821	759.720556	541.582722
0.447930	32.573923	808.265000	541.935148
0.512530	142.598451	839.818889	549.677721
0.595688	138.961918	813.119444	548.271522
0.675569	72.526828	781.565556	540.172591
0.704408	161.383079	854.382222	544.753024
0.774225	135.266021	830.110000	540.172591
0.878948	91.690197	808.265000	540.172591
0.955678	71.099158	929.626111	541.582722
1.059227	146.963068	907.781111	538.761779
1.140391	102.128333	917.490000	538.761779
1.234306	111.871493	929.626111	542.287532
1.373893	117.619464	898.072222	544.753024
1.462115	142.310691	973.316111	544.048811
1.550400	149.982104	900.499444	540.525187
1.666078	132.866794	876.227222	547.919865
1.786120	122.177555	951.471111	542.287532
1.922260	135.355166	910.208333	539.819951
1.956414	146.041003	963.607222	545.457066
2.081860	87.457586	1038.851111	543.344427
2.208671	92.429848	1172.348333	540.172591
2.372365	110.253370	1092.250000	543.696641
2.532837	93.254457	1250.019444	539.819951
2.653821	75.095053	1216.038333	539.819951
2.792573	52.552310	1242.737778	539.467270
2.919933	34.986062	1449.051667	539.467270
3.082364	21.511404	1820.416667	540.525187
3.268475	28.101667	1609.248333	540.525187
3.463236	32.231594	1601.966667	550.029164
3.675666	21.859759	2017.021667	538.761779
3.920642	19.780439	2167.509444	538.761779
3.987604	19.437153	2267.025556	539.467270
4.176628	21.503122	2063.138889	540.877741
4.406609	18.037230	2223.335556	540.525187
4.628519	18.392353	2568.001111	545.457066
4.653426	18.382916	2648.099444	542.992172
4.940312	17.700576	2827.713889	547.216422
5.089841	15.966262	3412.674444	540.525187
5.107419	14.920210	3759.767222	544.048811
5.421971	17.698308	2961.211111	539.467270
5.577278	16.308126	3356.848333	550.029164
5.666416	15.960124	3492.772778	547.919865
5.888489	16.310217	3378.693333	547.568165
6.161774	16.310217	3657.823889	539.819951
6.178529	14.918297	4099.578333	547.216422
6.585250	15.614169	3854.428889	538.408970
6.731610	16.310217	4111.714444	539.467270
6.890212	13.528820	5102.021111	543.344427
6.937535	14.572297	4869.007778	544.753024
6.975121	15.616171	4898.134444	545.457066
7.556483	15.266211	4422.398889	544.400939
7.545951	15.270126	4963.669444	543.344427
7.845256	14.224427	4793.763889	538.761779
7.700282	14.572297	5327.752778	541.582722
7.952744	14.226252	5614.165000	538.761779
8.313519	14.572297	5179.692222	543.344427
8.419012	14.574165	6444.275000	540.172591
8.505944	13.878382	6534.082222	545.809023
8.650210	13.530556	6461.265556	540.525187
8.947035	14.224427	5582.611111	541.230253
8.938488	13.878382	6912.728889	541.582722
8.944236	12.835038	6820.494444	543.696641
9.415416	14.920210	6337.477222	538.761779
9.528563	13.530556	7099.625000	542.287532
9.469932	15.616171	6186.989444	547.919865
10.031939	15.268168	6560.781667	540.172591
9.849386	12.488948	8961.304444	542.992172
10.032688	13.876601	7478.271667	539.467270
10.127042	15.266211	6606.898889	539.114546
10.379917	11.792092	8910.332778	538.761779
10.260272	14.222602	7643.322778	543.344427
10.435759	14.224427	7378.755556	540.525187
10.437251	13.876601	7963.716111	548.974707
10.621258	13.528820	9109.365000	539.114546
11.046344	13.527083	7335.065556	560.202248
10.435591	13.876601	8779.262778	542.287532
10.914073	14.224427	7621.477778	542.639873
11.059582	13.530556	8332.653889	539.467270
11.026432	13.874820	8636.056667	539.114546
11.392871	13.876601	7194.286667	540.877741
11.206783	13.876601	9184.608889	540.172591
11.382354	13.181083	8407.897778	546.160937
11.494178	14.222602	8400.616111	544.400939
11.335343	14.224427	8143.330556	542.992172
11.632129	13.181083	8682.173889	541.582722
11.568635	13.181083	9475.875556	546.864636
11.703860	12.833390	9114.219444	547.216422
11.635654	12.833390	9172.472778	543.696641
11.636824	13.181083	9250.143889	541.935148
11.529204	12.833390	9271.988889	540.172591
11.785688	12.485742	9291.406667	540.877741
11.828408	13.181083	9017.130556	545.105066
