power (mW)	FWHM	peak value	peak location
0.043120	107.070421	919.917222	541.230253
0.058662	91.957230	842.246111	540.172591
0.075326	20.738220	825.255556	539.819951
0.095976	95.388173	803.410556	538.761779
0.134009	132.902474	849.527778	539.114546
0.164427	118.292814	885.936111	545.457066
0.211771	57.629471	847.100556	539.467270
0.261960	37.147207	781.565556	542.639873
0.306017	64.661871	839.818889	539.114546
0.357086	43.219748	803.410556	541.582722
0.472765	66.730214	791.274444	540.172591
0.545355	51.160805	868.945556	541.230253
0.599477	136.840232	834.964444	540.525187
0.663762	143.245224	817.973889	551.785731
0.745862	138.298227	822.828333	545.457066
0.820140	145.513695	837.391667	542.287532
0.916631	74.004271	820.401111	545.105066
1.014900	116.752999	788.847222	542.992172
1.093650	83.901615	861.663889	539.467270
1.164193	125.500880	817.973889	541.935148
1.269941	112.591152	861.663889	545.105066
1.404160	64.712025	808.265000	542.639873
1.508804	124.846578	757.293333	541.582722
1.650752	147.528839	820.401111	541.935148
1.758187	104.045968	803.410556	538.761779
1.800979	70.251079	917.490000	553.541223
2.021821	140.838453	754.866111	539.114546
2.108930	126.656692	820.401111	541.935148
2.269823	130.125456	820.401111	541.582722
2.405488	144.595725	817.973889	547.568165
2.611874	103.258004	844.673333	544.048811
2.673798	115.609502	844.673333	539.819951
2.864465	109.704583	871.372778	538.761779
2.986105	122.664684	895.645000	539.819951
3.126455	93.515535	922.344444	548.974707
3.317344	104.236663	929.626111	541.582722
3.518929	104.781028	941.762222	546.864636
3.680586	95.766514	919.917222	540.172591
3.789189	103.311054	939.335000	539.114546
3.970642	63.428756	946.616667	539.114546
4.149106	101.270770	1041.278333	540.172591
4.382636	109.408138	936.907778	539.819951
4.557501	129.009300	1002.442778	540.525187
4.650615	79.987097	1046.132778	542.287532
4.809336	132.796655	1024.287778	543.696641
4.917328	80.092094	997.588333	547.919865
5.171634	107.489990	975.743333	539.467270
5.370325	46.942947	1084.968333	539.114546
5.441848	72.457790	1043.705556	543.344427
5.698121	157.917061	1031.569444	544.753024
5.850896	52.634063	1155.357778	540.172591
6.255314	80.723505	1182.057222	546.864636
6.249322	70.603292	1247.592222	538.408970
6.569493	30.952088	1257.301111	552.136916
6.562821	28.508646	1262.155556	539.114546
6.822345	52.318186	1320.408889	539.819951
6.686808	63.785323	1179.630000	542.992172
7.076980	70.102544	1203.902222	550.380563
7.168428	34.850256	1267.010000	539.467270
7.526972	57.526508	1330.117778	544.753024
7.655066	40.236111	1300.991111	548.974707
7.880317	46.353119	1286.427778	548.623136
8.237577	20.878670	1412.643333	540.172591
8.193288	29.887850	1373.807778	540.172591
8.357333	36.866406	1388.371111	541.935148
8.501238	25.750272	1354.390000	553.541223
8.574424	34.381484	1410.216111	538.761779
8.561593	21.214514	1638.375000	541.935148
8.989586	20.169908	1696.628333	540.525187
9.035327	17.049869	1907.796667	541.230253
9.224747	19.823415	1769.445000	540.525187
9.304780	13.919164	2106.828889	543.344427
9.416930	17.743523	1878.670000	539.819951
9.614671	19.127864	1953.913889	553.541223
9.666153	17.041208	1992.749444	539.114546
10.208083	18.432313	1992.749444	542.287532
10.002628	18.432313	2021.876111	539.819951
10.062841	19.825935	1832.552778	542.287532
10.493866	16.353962	2084.983889	544.048811
10.455627	18.425278	2186.927222	540.525187
10.861834	16.347732	2291.297778	546.864636
10.497187	16.347732	2276.734444	543.344427
10.614553	16.000927	2400.522778	545.105066
10.892896	16.694492	2317.997222	542.287532
11.096551	17.736761	2381.105000	540.525187
11.282095	17.390090	2364.114444	549.677721
11.198833	16.696614	2269.452778	541.935148
11.340649	15.307184	2606.836667	539.114546
11.205265	16.349809	2662.662778	543.696641
11.377361	14.611408	2735.479444	544.048811
11.545881	17.043374	2521.883889	545.105066
11.560459	18.085687	2519.456667	540.877741
11.534717	14.958346	2694.216667	550.029164
11.435906	16.347732	2754.897222	538.761779
11.492545	28.031342	963.607222	540.525187
11.819913	137.450946	827.682778	541.935148
12.148371	135.690455	888.363333	540.172591
11.734145	121.763414	953.898333	539.819951
11.585044	74.268446	876.227222	541.935148
11.790511	76.849067	992.733889	545.105066
