power (mW)	FWHM	peak value	peak location
54.621631	56.321511	895.645000	551.434504
54.460936	130.173905	958.752778	539.114546
54.235794	95.431609	919.917222	544.400939
53.386237	47.892092	881.081667	551.434504
53.414642	47.892092	881.081667	551.434504
53.333710	57.082135	895.645000	544.048811
52.449685	71.787310	946.616667	539.819951
53.138966	88.052122	919.917222	538.761779
53.651961	115.515871	949.043889	542.639873
52.541392	95.389886	975.743333	542.287532
52.831993	129.211261	1002.442778	542.287532
53.147818	22.698779	1014.578889	540.525187
53.509255	22.698779	1014.578889	540.525187
53.052106	90.786010	953.898333	543.696641
53.071035	11.770483	946.616667	542.992172
53.805984	131.055332	941.762222	539.467270
54.764799	120.576162	975.743333	545.457066
54.243268	42.279103	953.898333	538.761779
52.828197	113.554168	975.743333	541.230253
53.108144	155.635617	1050.987222	542.639873
52.347537	83.623368	1043.705556	539.467270
51.987492	29.749688	1033.996667	540.172591
52.055563	73.559012	997.588333	541.230253
52.181808	21.722165	936.907778	551.434504
52.215536	41.144062	932.053333	541.935148
51.362482	89.988025	932.053333	539.467270
52.322531	156.132261	953.898333	544.048811
52.161375	96.213544	995.161111	540.525187
52.462025	96.213544	995.161111	540.525187
52.999635	133.338978	922.344444	546.512808
52.694483	111.635334	929.626111	539.114546
51.988568	109.657078	958.752778	542.639873
51.320330	13.784331	1065.550556	548.623136
51.673525	149.148750	1043.705556	552.136916
52.471496	88.752620	1004.870000	541.935148
52.363868	104.018594	973.316111	543.344427
52.736150	27.976138	985.452222	545.457066
52.196905	73.286192	987.879444	538.761779
52.853962	114.122184	917.490000	538.761779
52.267867	153.764885	949.043889	539.819951
51.770899	153.764885	949.043889	539.819951
52.583516	102.978871	970.888889	542.992172
52.738436	70.712426	980.597778	540.172591
52.686851	116.228996	888.363333	542.639873
52.290643	133.995903	990.306667	539.819951
52.221776	133.995903	990.306667	539.819951
52.159829	112.914532	975.743333	541.230253
52.616345	112.914532	975.743333	541.230253
53.106495	38.737765	1084.968333	542.287532
52.423100	36.593018	1075.259444	545.457066
52.730213	84.240480	881.081667	550.029164
53.287311	114.190485	990.306667	542.639873
53.512445	132.630979	919.917222	545.809023
54.093683	132.630979	919.917222	545.809023
53.341808	143.290576	946.616667	539.114546
52.923583	71.132053	929.626111	550.029164
51.326775	155.053753	1000.015556	539.114546
51.847678	96.665241	898.072222	538.056118
51.220069	138.967500	949.043889	544.048811
53.109373	138.967500	949.043889	544.048811
52.019856	82.373806	929.626111	542.287532
51.764208	91.447110	1002.442778	541.230253
52.011306	145.766239	1014.578889	539.114546
51.759314	47.866611	970.888889	542.992172
50.978283	91.718767	1009.724444	541.230253
51.953150	32.822182	929.626111	545.105066
52.529033	131.229904	934.480556	541.230253
53.215586	74.118367	941.762222	539.467270
52.480502	139.059028	929.626111	553.892193
53.332984	47.639078	936.907778	548.271522
53.256336	47.639078	936.907778	548.271522
52.432879	130.142928	995.161111	539.467270
53.250692	130.142928	995.161111	539.467270
53.417529	68.875045	987.879444	538.408970
53.755762	66.113435	980.597778	541.230253
52.360371	57.627006	1014.578889	544.048811
53.011812	143.404718	1004.870000	540.172591
52.924370	131.125230	970.888889	545.105066
52.331388	123.714343	1002.442778	541.582722
51.935590	103.275518	944.189444	546.864636
52.064899	154.015421	987.879444	539.819951
51.700673	75.968395	934.480556	541.230253
52.141198	143.455872	980.597778	542.992172
51.590484	120.767921	987.879444	544.753024
52.228216	70.650495	951.471111	543.344427
52.140751	149.902128	970.888889	541.230253
50.877850	141.238290	910.208333	544.048811
52.353349	90.979285	968.461667	541.230253
52.301437	16.192903	968.461667	541.582722
52.884216	145.808716	968.461667	553.892193
51.925527	55.683151	1014.578889	544.048811
52.476050	79.670170	1017.006111	544.753024
52.348929	132.691271	958.752778	538.408970
53.217858	93.061781	958.752778	540.172591
52.573895	91.104283	944.189444	542.639873
