power (mW)	FWHM	peak value	peak location
49.448581	7.339377	3162.670556	543.344427
49.629146	6.989447	3371.411667	544.048811
50.337519	6.989447	3483.063889	542.639873
50.286548	6.290503	3842.292778	540.877741
49.879202	7.688391	3502.481667	539.467270
50.021270	6.291289	3987.926111	541.582722
49.742591	6.291289	3684.523333	538.761779
50.072414	6.291289	4330.164444	538.761779
49.168807	6.990320	3643.260556	540.525187
50.363927	6.291289	3990.353333	545.105066
49.976399	5.592257	4339.873333	544.400939
49.663810	6.291289	4184.531111	538.761779
50.561605	5.942144	4279.192778	547.216422
50.359354	5.942144	4046.179444	543.696641
48.969476	5.942144	4461.234444	539.819951
48.659621	6.292074	4262.202222	545.105066
48.383214	5.592955	4551.041667	543.696641
48.195003	5.942144	4152.977222	539.819951
47.742939	5.243069	4844.735556	544.048811
47.970791	5.243069	4844.735556	544.048811
49.172784	6.641219	4109.287222	543.344427
49.059666	5.592955	4286.474444	544.400939
48.610470	5.942885	4713.665556	541.935148
47.759102	6.292074	4233.075556	540.877741
47.084922	5.942885	4885.998333	542.992172
47.453064	5.243723	4626.285556	540.877741
48.106173	6.642047	4274.338333	541.230253
48.283851	6.292858	4492.788333	564.750771
48.104166	6.991192	4009.771111	545.105066
48.004682	5.593653	4635.994444	542.287532
47.834641	6.642047	4021.907222	541.582722
47.436743	5.942885	4361.718333	544.400939
47.063245	6.292858	4165.113333	544.400939
46.316558	5.593653	4703.956667	540.172591
46.354239	5.593653	4703.956667	540.172591
46.072649	6.292858	4276.765556	539.114546
45.974231	6.992064	4014.625556	538.761779
45.572328	6.292858	4371.427222	542.287532
46.789264	6.292858	4257.347778	538.761779
46.945433	6.642875	4179.676667	542.992172
48.885713	5.943626	4320.455556	541.582722
48.673972	5.943626	4655.412222	544.753024
49.752034	6.642875	3915.109444	548.271522
49.323877	6.642875	3915.109444	548.271522
49.369861	5.943626	4111.714444	542.992172
49.177813	5.943626	4463.661667	543.344427
48.915306	6.642875	3784.039444	542.992172
48.861378	6.642875	3784.039444	542.992172
48.311013	6.642875	3941.808889	540.525187
48.634745	6.293643	4182.103889	544.753024
48.097940	7.342124	2211.199444	546.160937
48.241122	6.642875	3893.264444	541.230253
48.123905	6.992936	3813.166111	543.344427
48.931325	5.944367	4415.117222	564.401146
49.250787	6.992936	3839.865556	539.114546
48.882179	6.992936	3839.865556	539.114546
49.073561	6.293643	4148.122778	541.935148
48.275744	6.293643	4034.043333	539.114546
47.627059	6.992936	3754.912778	540.172591
47.929105	6.643703	4189.385556	542.992172
48.122364	6.293643	3939.381667	540.525187
48.252256	7.342124	3587.434444	541.935148
48.921090	6.293643	3912.682222	539.467270
47.463295	6.992936	3854.428889	540.525187
48.780055	6.293643	3929.672778	545.809023
48.476644	6.992936	3708.795556	541.935148
47.901641	6.643703	3876.273889	548.974707
47.996300	6.293643	4024.334444	539.819951
48.119612	6.992936	3631.124444	544.048811
47.710850	6.992936	3616.561111	544.048811
48.799133	6.643703	3565.589444	539.467270
48.405179	6.643703	3762.194444	544.048811
50.043240	6.643703	3677.241667	545.457066
48.720809	6.643703	3589.861667	564.051477
48.240470	6.643703	3827.729444	564.051477
48.342897	7.692228	3453.937222	540.877741
48.544686	5.944367	3791.321111	538.761779
47.738948	6.294427	3601.997778	545.105066
48.311302	6.294427	3633.551667	544.400939
48.847822	6.643703	3378.693333	539.114546
48.402762	6.643703	3519.472222	539.819951
49.273991	7.343040	3315.585556	540.877741
48.374510	7.692228	3160.243333	542.639873
49.827746	6.993807	3383.547778	541.935148
47.995662	5.944367	3716.077222	542.287532
48.444266	5.944367	3716.077222	542.287532
48.691365	6.643703	3242.768889	541.935148
50.684614	8.042375	3063.154444	542.992172
50.113793	6.993807	3405.392778	541.935148
50.344858	7.343040	3276.750000	539.467270
