power (mW)	FWHM	peak value	peak location
52.132634	5.943626	4946.678889	548.271522
50.972332	5.943626	4946.678889	548.271522
51.205875	6.293643	5024.350000	564.401146
51.273610	6.992936	4521.915000	543.344427
52.096196	6.642875	4968.523889	548.623136
51.995441	6.643703	5029.204444	544.400939
51.621944	6.643703	5029.204444	544.400939
51.842947	6.643703	4774.346111	539.114546
52.416241	6.643703	5065.612778	544.048811
51.992536	6.643703	5031.631667	540.525187
51.942784	6.293643	5400.569444	541.582722
51.578432	6.992936	4657.839444	545.105066
51.349499	6.643703	5051.049444	548.974707
50.938604	7.692228	4390.845000	541.230253
51.270560	6.643703	4910.270556	542.639873
50.984547	5.944367	5070.467222	564.051477
50.922735	6.643703	4985.514444	540.172591
51.150769	6.643703	5211.246111	542.992172
51.199435	6.643703	5242.800000	542.639873
51.702224	6.294427	5393.287778	540.525187
52.375053	6.294427	5461.250000	540.172591
52.236421	6.993807	5148.138333	539.114546
52.103964	6.993807	5148.138333	539.114546
51.735197	6.993807	4912.697778	538.761779
52.290470	6.644531	5267.072222	544.048811
52.173417	6.993807	4963.669444	541.582722
52.346471	6.993807	4963.669444	541.582722
51.739621	8.042375	2728.197778	564.051477
51.865382	6.993807	4878.716667	540.877741
51.426878	6.294427	5017.068333	543.344427
51.151225	6.294427	4890.852778	542.639873
50.553982	6.644531	5332.607222	542.287532
50.495686	6.993807	4939.397222	563.701765
50.452766	6.644531	4961.242222	539.114546
50.824597	6.644531	5383.578889	545.105066
51.221424	6.644531	5383.578889	545.105066
50.020223	6.644531	5106.875556	540.877741
50.796811	6.644531	5106.875556	540.877741
49.614487	6.295211	5504.940000	539.467270
49.974578	5.945108	5725.817222	543.696641
50.619449	6.644531	5284.062778	539.114546
50.123995	6.295211	5919.995000	563.701765
51.315445	6.295211	5919.995000	563.701765
51.006344	6.994678	5123.866111	542.992172
51.002563	6.994678	5245.227222	540.172591
51.680384	6.994678	4805.900000	541.582722
51.653651	6.994678	4805.900000	541.582722
51.281257	6.645358	5398.142222	540.525187
51.898644	6.645358	5279.208333	541.230253
51.476164	6.295211	5262.217778	539.819951
51.059318	5.945848	5686.981667	539.114546
51.168017	6.645358	5041.340556	539.819951
51.683448	6.295995	5723.390000	540.525187
51.723290	7.344869	4832.599444	543.344427
52.503082	6.645358	5148.138333	563.352009
53.679291	6.645358	5148.138333	563.352009
52.025346	6.994678	4784.055000	563.352009
52.120895	6.994678	4864.153333	539.819951
52.970904	6.995549	4706.383889	538.761779
53.108111	6.645358	4936.970000	541.230253
52.493778	6.645358	4936.970000	541.230253
53.132549	6.645358	4822.890556	541.935148
52.418080	6.995549	4963.669444	539.114546
52.090059	6.645358	5024.350000	541.230253
52.121794	6.645358	4847.162778	540.877741
52.360822	7.344869	4580.168333	563.352009
51.228013	6.645358	4531.623889	546.512808
51.744948	6.645358	4740.365000	548.271522
51.694755	7.695103	4410.262778	539.819951
50.410801	6.995549	4587.450000	542.992172
51.391460	6.995549	4320.455556	540.172591
50.840769	6.995549	4174.822222	540.172591
52.357474	6.295995	4771.918889	539.467270
51.915762	6.995549	4541.332778	540.172591
52.007935	6.995549	4492.788333	543.696641
52.067926	6.995549	4555.896111	544.753024
53.158491	6.646186	4572.886667	540.877741
53.624487	6.646186	4611.722222	543.344427
53.184777	6.995549	4342.300556	542.639873
52.460195	6.995549	4381.136111	538.761779
53.176507	6.995549	4871.435000	539.114546
52.001984	6.995549	4359.291111	539.114546
52.125161	7.344869	3990.353333	540.525187
51.546535	6.646186	4458.807222	543.696641
51.723747	6.646186	4458.807222	543.696641
51.455726	6.995549	4286.474444	539.114546
50.978297	6.646186	4169.967778	544.048811
51.384903	7.695103	3924.818333	539.467270
49.906028	7.345783	3980.644444	542.639873
49.541872	7.695103	3706.368333	563.002209
51.407944	8.044379	3796.175556	542.992172
51.210430	7.695103	3771.903333	543.696641
52.045202	7.345783	4019.480000	540.172591
52.001681	6.646186	4189.385556	540.525187
