power (mW)	FWHM	peak value	peak location
48.657958	11.534733	3893.264444	564.051477
49.456977	11.185895	4072.878889	544.048811
49.533001	12.233805	3735.495000	540.877741
50.702170	11.184499	3922.391111	564.051477
50.451392	10.835661	4194.240000	545.105066
50.448645	10.137853	4322.882778	542.639873
50.198333	11.185895	4291.328889	541.230253
50.388202	10.486778	4504.924444	540.172591
50.649983	11.185895	4104.432778	542.639873
50.134673	11.534733	4048.606667	564.051477
49.944953	10.486778	4422.398889	539.467270
50.063091	11.185895	4087.442222	544.400939
50.145979	9.438692	4354.436667	542.992172
50.257407	9.089679	4504.924444	543.344427
50.585270	9.788883	4534.051111	544.048811
50.377678	9.438692	4395.699444	546.160937
50.200163	9.089679	4383.563333	541.935148
50.675906	8.390474	4752.501111	542.992172
50.636381	9.089679	4417.544444	538.761779
49.389824	9.438692	4451.525556	539.114546
49.925419	9.089679	4490.361111	542.992172
50.023878	9.438692	4369.000000	538.761779
50.233733	9.089679	4478.225000	542.992172
49.888939	7.692228	4786.482222	547.216422
49.562594	9.089679	4589.877222	538.761779
49.524629	9.788883	4599.586111	540.877741
49.534552	10.137853	4262.202222	540.877741
49.653272	9.438692	4220.939444	539.819951
49.622906	9.438692	4538.905556	543.344427
49.653584	10.137853	4174.822222	547.919865
50.139423	10.137853	4342.300556	539.467270
50.023561	9.438692	4444.243889	539.819951
50.173742	10.137853	4237.930000	540.877741
50.661573	9.089679	4381.136111	543.344427
51.465337	9.089679	4322.882778	539.114546
51.827687	8.391520	4876.289444	540.877741
51.343385	9.788883	4322.882778	542.287532
51.228902	9.788883	4322.882778	542.287532
51.244646	9.089679	4128.705000	546.864636
51.069702	9.089679	4128.705000	546.864636
51.317415	9.439869	4310.746667	544.753024
50.990810	9.439869	4429.680556	541.935148
51.097791	8.391520	4424.826111	545.809023
50.732847	9.090812	4548.614444	541.230253
50.831758	8.391520	4473.370556	538.761779
51.026247	8.740621	4230.648333	543.696641
49.580946	8.391520	4436.962222	542.639873
50.435830	9.439869	4247.638889	539.114546
50.694998	8.741711	4313.173889	543.344427
50.911270	9.439869	4116.568889	546.160937
50.745201	8.741711	4191.812778	563.701765
51.060878	9.090812	4065.597222	543.344427
49.610864	9.439869	4405.408333	542.287532
51.049427	8.741711	4279.192778	545.105066
50.277086	8.741711	4279.192778	545.105066
50.620968	8.741711	4196.667222	542.287532
49.570515	9.090812	4354.436667	539.114546
50.462075	9.790103	4111.714444	540.877741
50.514140	9.790103	4111.714444	540.877741
49.937204	9.441046	4075.306111	563.352009
50.149634	10.139117	3529.181111	546.864636
48.895138	9.441046	3907.827778	540.172591
50.174682	9.790103	3983.071667	544.048811
52.620638	9.790103	3983.071667	544.048811
50.983648	9.091945	4085.015000	545.105066
51.229666	9.441046	3895.691667	563.352009
50.238478	10.488087	3689.377778	563.352009
49.694628	9.441046	3742.776667	545.457066
50.800466	9.441046	3859.283333	540.172591
