power (mW)	FWHM	peak value	peak location
51.659960	127.898067	1099.531667	540.525187
51.815463	70.062845	1109.240556	546.160937
51.879883	130.974828	1155.357778	538.761779
52.350634	81.532768	1109.240556	540.172591
52.407538	151.443782	1084.968333	543.696641
51.254719	115.831202	1118.949444	540.172591
52.008568	104.806932	1157.785000	539.114546
50.515984	138.078257	1060.696111	545.105066
50.242441	138.078257	1060.696111	545.105066
50.797593	107.757708	1114.095000	546.160937
51.022689	127.579761	1077.686667	547.568165
51.232120	123.103306	1121.376667	539.819951
50.615659	134.136553	1111.667778	543.344427
49.575898	143.255738	1123.803889	544.048811
49.781180	117.971036	1114.095000	539.819951
49.828021	128.089108	1058.268889	544.400939
50.937100	124.659023	1084.968333	542.287532
52.203615	118.130184	1131.085556	540.525187
51.148026	118.130184	1131.085556	540.525187
51.668179	125.281338	1084.968333	539.114546
52.005034	98.922069	1033.996667	540.525187
52.741650	94.686529	1087.395556	539.114546
52.456399	106.327486	1106.813333	551.083233
51.667551	112.355707	1148.076111	549.677721
51.424275	112.355707	1148.076111	549.677721
51.476615	114.662554	1150.503333	550.029164
50.598374	72.112973	1216.038333	550.731920
50.729956	80.973487	1157.785000	542.287532
50.821090	109.026796	1084.968333	539.819951
50.693322	82.631588	1145.648889	545.105066
50.810832	92.113506	1128.658333	539.114546
50.632986	84.649207	1152.930556	539.114546
50.507565	117.592694	1152.930556	539.467270
50.959038	78.546271	1191.766111	546.864636
51.267990	78.546271	1191.766111	546.864636
50.631175	145.769483	1101.958889	541.230253
50.630281	97.413069	1162.639444	539.467270
51.045292	97.740769	1145.648889	540.172591
50.646472	92.703604	1116.522222	543.696641
51.221889	159.371569	1131.085556	539.114546
51.130601	159.371569	1131.085556	539.114546
51.753055	141.029857	1099.531667	540.172591
52.204831	91.618872	1157.785000	544.048811
51.510967	142.065023	1152.930556	544.400939
50.909757	100.395600	1140.794444	545.105066
50.242427	65.245021	1162.639444	544.048811
50.985017	123.708708	1082.541111	545.457066
51.514343	132.603290	1138.367222	539.467270
51.158872	132.603290	1138.367222	539.467270
51.185251	94.166367	1174.775556	543.696641
51.827384	97.224660	1135.940000	542.639873
51.332717	57.922454	1201.475000	546.512808
51.913140	138.967500	1126.231111	541.935148
51.639015	138.297980	1109.240556	539.114546
52.579730	99.445332	1121.376667	540.877741
51.075965	68.380434	1104.386111	539.819951
51.933308	140.913869	1133.512778	546.160937
50.950367	77.350315	1116.522222	543.696641
52.069165	106.505765	1167.493889	540.877741
50.863023	71.107788	1169.921111	541.230253
51.177023	113.935721	1184.484444	539.467270
50.522974	113.935721	1184.484444	539.467270
51.001953	92.362394	1199.047778	542.287532
51.909806	84.534012	1179.630000	544.400939
51.016002	87.221477	1128.658333	542.992172
50.658211	100.670519	1138.367222	566.148836
50.437199	107.391447	1143.221667	548.974707
51.739751	102.578430	1167.493889	541.582722
50.803535	135.873809	1099.531667	544.753024
51.786168	91.233292	1099.531667	543.696641
51.132906	91.268393	1179.630000	546.864636
50.495043	91.268393	1179.630000	546.864636
50.255698	116.764333	1099.531667	542.287532
51.289084	118.328570	1135.940000	540.877741
51.860348	118.328570	1135.940000	540.877741
51.922016	102.838626	1148.076111	541.935148
52.230018	77.597488	1191.766111	541.230253
50.720666	151.434560	1101.958889	538.761779
51.855338	118.017826	1135.940000	543.696641
51.312097	118.017826	1135.940000	543.696641
51.990985	105.699933	1162.639444	547.568165
52.317497	81.737559	1165.066667	543.344427
51.961215	108.487480	1172.348333	542.287532
50.922269	80.950725	1177.202778	538.761779
51.663886	71.705659	1174.775556	545.457066
52.155242	127.277110	1155.357778	539.467270
51.265690	79.553203	1237.883333	544.400939
50.374772	104.915486	1128.658333	541.230253
51.558274	157.895882	1140.794444	540.172591
50.029359	46.984701	1179.630000	539.819951
50.403168	90.469901	1169.921111	543.344427
