power (mW)	FWHM	peak value	peak location
49.234745	6.616228	5985.530000	538.761779
49.804077	6.268402	6660.297778	542.992172
48.829829	5.571209	7359.337778	541.230253
48.775049	5.571209	7701.576111	538.761779
49.017253	5.571209	7160.305556	550.731920
49.114926	5.571209	7594.778333	539.114546
48.463466	5.571209	7735.557222	546.864636
49.197827	5.222678	8250.128333	539.114546
48.314361	5.919783	7565.651667	538.761779
47.952947	5.222678	9046.257222	539.467270
47.724447	5.222678	8441.878889	540.525187
47.917850	5.571209	8555.958333	539.467270
48.403502	6.267609	8058.377778	539.467270
47.880444	4.526321	9670.053333	544.400939
47.172541	5.222678	8835.088889	539.467270
48.198998	5.222678	9143.346111	544.048811
47.063092	6.267609	7815.655556	539.467270
48.340489	5.222678	8941.886667	546.512808
48.328107	5.222678	8941.886667	546.512808
48.719766	5.222678	9424.903889	542.287532
48.048478	5.919034	8927.323333	541.935148
48.742350	5.571209	9233.153333	546.512808
49.682115	5.222678	9398.204444	545.809023
49.552852	4.874191	10327.830556	545.105066
49.241618	4.874191	10990.462222	540.172591
48.966436	5.919034	9046.257222	544.400939
48.467312	5.919034	9046.257222	544.400939
47.993232	5.222678	10330.257778	541.935148
48.979255	4.874191	10121.516667	549.326236
50.254650	4.874191	9881.221667	548.271522
48.587285	5.222678	10230.741667	539.467270
48.514935	4.874191	11390.953889	540.525187
47.385120	5.570503	10640.942222	539.114546
48.533860	5.570503	10640.942222	539.114546
47.610598	5.570503	9975.883333	546.160937
47.113579	5.919034	9776.851111	538.761779
47.774054	5.222678	10466.182222	538.761779
48.809070	5.222678	10466.182222	538.761779
47.990638	4.874191	10963.762778	541.935148
47.491849	5.919034	10825.411111	540.172591
48.185391	4.525748	12009.895556	542.992172
48.099463	5.919034	10170.061111	546.512808
47.727516	5.222678	11403.090000	543.344427
46.725776	5.222016	10361.811667	539.114546
46.958546	4.874191	10779.293889	540.877741
47.890493	5.222678	11191.921667	541.230253
47.328509	4.874191	11068.133333	540.877741
47.588432	5.570503	11390.953889	542.992172
47.350936	6.267609	10002.582778	551.785731
46.887845	5.919034	11128.813889	540.525187
47.627869	5.919034	10672.496111	548.271522
47.133276	4.874191	12332.716111	541.230253
46.089739	5.919034	11106.968889	547.919865
48.030457	4.177349	13048.746667	542.992172
48.652440	4.177349	13048.746667	542.992172
48.648780	6.267609	10767.157778	542.639873
47.768867	5.222678	12051.158333	544.400939
47.941469	5.222678	12051.158333	544.400939
48.165410	4.874191	12204.073333	539.819951
47.697905	5.222678	11963.778333	543.696641
49.056322	4.874191	12077.857778	541.582722
47.574877	5.919034	11383.672222	544.400939
47.974004	5.570503	12551.166111	539.114546
47.469549	5.570503	12633.691667	540.877741
46.808035	5.570503	12410.387222	543.696641
47.325608	5.570503	12143.392778	545.809023
48.214709	5.571209	12204.073333	539.819951
48.501967	5.919034	11330.273333	540.877741
46.742097	5.919034	12089.993889	576.263858
48.348261	6.267609	11240.466111	539.467270
48.638582	6.267609	11735.619444	541.230253
48.669404	5.570503	12689.517778	539.467270
47.534276	5.570503	12934.667222	552.136916
47.585685	6.616228	11369.108889	552.136916
47.203200	5.919034	11619.112778	541.582722
46.234620	5.919034	12463.786111	539.819951
46.432558	5.570503	12810.878889	542.287532
47.458881	6.267609	11992.905000	541.230253
47.174040	5.919034	12320.580000	547.919865
46.769585	5.919034	13279.332778	542.992172
49.371822	6.964009	11398.235556	541.582722
48.033684	6.964009	11398.235556	541.582722
47.466485	5.919034	11757.464444	543.696641
48.858947	5.919034	13446.811111	541.230253
48.089102	6.964890	12000.186667	544.400939
48.302016	5.919034	12478.349444	537.703224
47.918139	6.616228	11403.090000	541.230253
49.757818	5.222678	13611.862222	544.400939
48.139924	6.267609	12854.568889	541.935148
47.437958	6.267609	12735.635000	542.287532
47.871419	6.267609	12735.635000	542.287532
48.534777	6.616228	11177.358333	541.582722
48.250109	7.661378	11886.107222	575.915679
47.166720	5.919034	12825.442222	542.639873
48.611416	5.919034	12825.442222	542.639873
48.186476	5.919034	13223.506667	541.935148
48.575229	6.616228	12772.043333	543.696641
47.890660	5.919034	13849.730000	546.160937
46.864962	6.267609	13075.446111	541.935148
47.315084	7.312672	12065.721667	538.761779
48.537496	6.616228	12849.714444	544.400939
48.343809	6.267609	13674.970000	542.639873
47.905631	6.964890	12051.158333	544.048811
47.698203	6.267609	13170.107778	545.105066
