power (mW)	FWHM	peak value	peak location
72.077475	7.002505	5975.821111	560.202248
70.013123	7.002505	6587.481111	560.552395
71.512586	8.401961	4364.145556	560.552395
73.030244	6.651967	6737.968889	560.552395
72.001827	6.301474	7648.177222	560.552395
73.071307	5.601311	9187.036111	560.902499
68.075633	6.651967	8456.442222	560.902499
70.342515	7.000768	5893.295556	560.902499
71.083340	7.001636	7405.455000	560.902499
69.547326	6.651142	8276.827778	560.902499
66.945786	6.651142	8679.746667	560.902499
71.691891	6.300692	8388.480000	561.252560
70.909051	5.951023	13621.571111	560.902499
69.674600	6.651142	8837.516111	560.902499
69.249502	5.951023	10065.690556	560.902499
70.249251	5.600616	10318.121667	561.252560
64.527798	6.300692	11856.980556	560.902499
71.244983	7.700843	5849.605556	561.252560
69.152335	6.300692	8102.067778	561.252560
67.547463	6.300692	9398.204444	561.252560
72.935918	5.950284	9019.557778	561.252560
72.041721	7.000768	7063.216667	561.252560
68.300586	6.650317	7521.961667	561.252560
74.244400	6.651142	9055.966111	561.252560
74.348590	6.300692	9315.678889	561.252560
72.569120	7.350349	6473.401667	538.408970
72.265222	6.650317	7233.122222	561.252560
71.745290	6.300692	9303.542778	561.252560
74.878132	6.650317	7150.596667	561.252560
75.137547	5.950284	9167.618333	561.252560
74.426000	6.650317	8390.907222	539.114546
68.576909	5.950284	10393.365556	561.252560
73.053485	7.350349	5274.353889	561.602576
69.779522	6.650317	7412.736667	561.252560
72.197260	8.049382	4507.351667	561.602576
69.336661	6.650317	7519.534444	561.252560
69.748424	6.999899	5706.399444	561.252560
71.338048	8.398833	4507.351667	561.602576
67.515392	6.299910	7055.935000	561.252560
68.945886	5.599920	8252.555556	561.252560
72.144937	6.299910	5628.728333	561.602576
72.822339	6.999899	6143.299444	561.252560
67.954265	6.299910	7398.173333	561.252560
69.443382	7.699887	4895.707222	561.602576
76.004719	7.350349	5674.845556	561.252560
71.634750	8.398833	4254.920556	561.602576
68.600429	7.699887	5555.911667	561.252560
66.810478	7.699887	5237.945556	561.602576
70.690567	8.398833	4524.342222	561.602576
70.717029	7.698931	4956.387778	561.602576
70.703957	8.049382	4912.697778	561.602576
70.234240	9.097603	4148.122778	561.602576
72.213787	9.448097	3881.128333	561.602576
69.182230	8.398833	3864.137778	538.408970
71.023667	9.448097	3825.302222	561.602576
73.196248	8.749326	4354.436667	561.602576
69.759951	8.398833	4223.366667	561.602576
72.574709	6.999899	6094.755000	561.602576
67.650214	6.999899	5339.888889	561.602576
70.798533	12.591968	3072.863333	561.602576
73.162322	10.846462	3368.984444	561.602576
71.735528	7.699887	4936.970000	561.252560
70.076969	9.446923	3893.264444	561.602576
72.566945	8.749326	3953.945000	561.602576
72.521750	6.999899	5034.058889	561.602576
72.635397	7.699887	4558.323333	561.602576
69.143966	10.497230	3509.763333	561.602576
67.728424	9.098734	3788.893889	561.602576
72.885474	12.593535	2958.783889	561.602576
73.417361	7.699887	4791.336667	561.252560
68.961664	8.749326	4339.873333	561.252560
69.545472	13.640444	2866.549444	561.602576
71.631846	9.449271	3449.082778	561.252560
69.029325	26.553005	2240.326111	561.952550
70.722304	17.133698	2611.691111	561.602576
71.356285	10.495925	3162.670556	561.602576
70.093411	11.544796	3160.243333	561.602576
71.583240	24.807680	2228.190000	561.952550
70.173395	11.546232	3053.445556	561.252560
67.061643	8.049382	3808.311667	561.252560
69.828090	27.599402	2058.284444	561.952550
74.273230	16.785079	2577.710000	561.602576
65.541462	12.593535	3034.027778	561.602576
70.909660	19.224487	2327.706111	561.952550
72.834870	25.509662	2143.237222	561.952550
71.070335	10.147954	3356.848333	561.602576
70.178132	21.664445	2419.940556	561.952550
68.342504	16.432321	2706.352778	561.602576
72.399882	24.801478	2169.936667	561.952550
70.991253	9.797417	3194.224444	561.602576
69.842119	9.449271	3330.148889	561.252560
73.262981	16.089713	2682.080556	561.602576
71.936372	19.226886	2419.940556	561.602576
71.195784	7.700843	4500.070000	561.252560
71.792330	20.976071	2252.462222	561.952550
70.118895	9.098734	3614.133889	561.252560
70.334916	12.942548	2851.986111	561.602576
69.966836	25.509662	2097.120000	561.952550
71.919040	32.142956	1864.106667	562.302480
71.097098	11.895376	2910.239444	561.602576
