power (mW)	FWHM	peak value	peak location
-1.280162	125.948757	3371.411667	542.287532
-1.242527	125.902833	3223.351111	542.992172
-0.949043	157.917061	3211.215000	542.287532
-0.621502	120.832329	3211.215000	543.696641
-0.048696	60.344654	3284.031667	541.582722
0.584585	64.564096	3393.256667	542.639873
1.379898	111.930214	3354.421111	542.992172
2.229114	62.138139	3332.576111	543.344427
3.059778	49.060313	3310.731111	541.582722
4.187593	41.453167	3419.956111	543.344427
5.637657	37.960263	3250.050556	606.729188
6.760319	38.301236	3385.975000	571.036557
7.916857	38.646967	3237.914444	542.287532
9.153331	40.725572	3468.500556	570.687718
10.938034	36.567283	3876.273889	570.338836
13.192529	36.567283	4165.113333	570.338836
14.584833	37.604880	4369.000000	569.640940
16.382508	35.870790	4609.295000	569.291927
18.550773	33.101534	5080.176111	569.640940
21.069833	34.140341	5466.104444	644.654049
23.409229	32.062325	5686.981667	569.640940
25.427979	32.755176	6223.397778	568.942870
27.819615	32.755176	6373.885556	568.593768
31.846410	30.676087	6905.447222	568.942870
35.505401	30.676087	7288.948333	568.593768
37.034455	30.329416	7769.538333	568.593768
37.918676	28.241342	8196.729444	568.593768
41.849725	28.244899	8563.240000	568.244624
44.919708	28.595393	8954.022778	567.895435
47.011371	27.547510	9512.283889	567.895435
50.535135	26.506428	10019.573333	567.546203
53.853029	26.506428	10390.938333	567.895435
56.871888	27.547510	10441.910000	567.546203
59.502194	27.203950	10975.898889	567.546203
61.956042	27.207373	11089.978333	567.196927
66.709356	26.513096	11958.923889	566.847607
70.401025	25.815397	12187.082778	567.196927
72.727416	25.815397	12439.513889	567.546203
77.865808	26.162602	12548.738889	567.196927
80.813112	25.815397	12383.687778	566.847607
83.973759	25.468147	13415.257222	567.196927
88.631682	25.468147	13711.378333	566.847607
92.230877	25.468147	14179.832222	566.847607
95.496094	25.120853	14781.783333	566.498243
100.603863	24.773515	15174.993333	566.498243
103.202159	23.731234	15869.178889	566.148836
106.193148	24.426132	16111.901111	566.148836
110.498152	23.380783	16359.477778	566.148836
114.092103	24.426132	16279.379444	566.148836
120.115012	23.731234	17043.954444	565.799385
121.563277	24.078705	17143.470556	566.148836
125.426461	24.078705	17412.892222	566.148836
129.853212	24.426132	17376.483889	566.148836
131.089729	24.078705	17354.638889	566.148836
133.580202	24.078705	18160.476667	565.799385
137.483049	22.688554	19194.473333	565.449891
142.246426	23.036158	19238.163333	565.449891
145.104737	23.383718	19068.257778	565.449891
153.148559	23.033268	19240.590556	565.799385
157.512992	23.033268	19240.590556	565.799385
158.956414	23.033268	19505.157778	565.799385
162.148278	23.036158	18772.136667	565.799385
163.235771	22.338104	20369.248889	565.449891
168.951904	22.688554	20723.623333	565.449891
170.996250	22.685708	20109.536111	565.799385
176.424103	22.685708	20065.846111	565.799385
180.199951	23.033268	19704.190000	566.148836
181.967986	22.338104	20502.746111	565.799385
188.174099	22.338104	20869.256667	565.799385
192.726415	22.685708	20587.698889	565.799385
197.069556	22.685708	20209.052222	566.148836
197.074306	23.033268	20354.685556	566.148836
200.682483	22.685708	20592.553333	566.148836
201.587565	23.728255	19774.579444	566.148836
202.713277	23.033268	20099.827222	566.148836
206.432026	23.033268	20111.963333	566.148836
213.907985	23.380783	18956.605556	566.498243
210.028700	134.684443	4140.841111	540.877741
213.873736	142.782968	4310.746667	542.287532
214.979076	144.827760	4320.455556	542.639873
219.780579	127.311771	4371.427222	543.344427
219.948985	127.393695	4240.357222	542.992172
223.525893	123.021762	4252.493333	542.287532
226.683519	113.584085	4177.249444	543.344427
228.645582	116.168956	4252.493333	542.992172
234.010304	125.065985	4286.474444	552.839156
236.002193	130.449970	4177.249444	542.639873
237.188651	41.475586	4288.901667	542.287532
236.916845	117.899198	4349.582222	541.582722
236.285641	103.305992	4359.291111	539.819951
240.351306	95.380523	4325.310000	543.344427
241.670361	56.223246	4194.240000	540.877741
241.965847	129.005751	4160.258889	544.400939
240.878527	155.800589	4223.366667	542.287532
243.988237	114.091602	4376.281667	539.467270
241.265074	116.406582	4140.841111	542.639873
252.766139	129.676281	4223.366667	541.582722
246.734661	77.634521	4262.202222	547.216422
245.614048	122.780744	4155.404444	542.287532
246.831309	134.286443	4150.550000	541.230253
248.539774	134.684443	4259.775000	542.639873
248.853350	94.035965	4218.512222	542.992172
251.266290	107.285541	4121.423333	542.992172
246.537524	105.686876	4254.920556	543.344427
252.674496	118.134503	4196.667222	540.525187
