power (mW)	FWHM	peak value	peak location
1.407199	140.786966	3893.264444	541.582722
1.407248	150.114429	3810.738889	541.935148
1.417407	129.409385	3854.428889	544.048811
1.409393	83.461787	4029.188889	544.400939
1.523344	152.649286	3958.799444	542.992172
1.884036	27.475515	3987.926111	542.639873
2.206855	129.401216	3951.517778	542.287532
2.795498	122.681280	3915.109444	553.541223
3.279296	126.685835	3949.090556	542.992172
4.388032	109.440413	3830.156667	541.230253
5.141476	143.236713	3827.729444	540.172591
6.216433	32.916800	3830.156667	543.344427
7.225436	135.194599	3895.691667	542.639873
8.630001	109.878450	3873.846667	542.287532
10.131003	86.993236	3839.865556	537.703224
11.581545	97.060597	3915.109444	540.525187
13.149751	55.972968	3934.527222	542.992172
14.998334	66.425096	3919.963889	541.935148
16.624643	62.726357	3895.691667	541.582722
18.670925	42.861084	3820.447778	542.639873
21.219534	37.713209	3881.128333	541.582722
22.897161	40.454771	3805.884444	541.935148
26.634318	37.722979	3835.011111	541.230253
28.521172	35.637336	3871.419444	542.287532
30.886085	33.944718	3910.255000	543.344427
33.486920	30.473205	3900.546111	538.408970
36.626594	32.538239	4085.015000	543.344427
39.490996	28.747385	4373.854444	552.488057
41.493808	27.365533	4524.342222	542.639873
44.188910	28.399207	4699.102222	542.992172
48.208624	26.328056	5133.575000	542.287532
51.320170	27.017398	5208.818889	538.761779
53.541601	24.249564	5944.267222	542.992172
57.802978	24.252691	6208.834444	539.467270
59.899635	23.559769	6558.354444	553.892193
64.390915	23.214804	7031.662778	553.541223
67.099358	21.480996	7519.534444	542.287532
72.084222	21.138620	7970.997778	544.048811
76.067267	20.790750	8463.723889	541.582722
79.273077	20.790750	8820.525556	544.048811
82.068052	20.790750	8820.525556	544.048811
88.836497	19.404716	10128.798333	542.639873
90.602494	18.021001	10488.027222	542.992172
97.070227	18.021001	11148.231667	543.344427
100.476423	17.673308	11725.910556	540.172591
102.418184	17.327892	12813.306111	543.344427
104.356615	16.287178	13228.361111	556.698392
111.919513	15.939618	13808.467222	542.639873
117.024104	15.246596	14946.834444	553.541223
121.075136	14.899125	15602.184444	553.892193
125.017250	14.553574	16252.680000	541.935148
125.881599	13.858764	16502.683889	540.877741
132.319331	13.165830	17704.158889	544.400939
137.931236	13.165830	18046.397222	544.048811
141.205976	11.778440	20182.352778	543.344427
147.333636	12.125645	20701.778333	543.344427
150.006916	11.431279	21524.606667	541.935148
151.664974	11.778440	22777.053333	544.048811
159.575266	11.431279	24264.940556	543.344427
161.179994	11.084163	24718.831111	544.400939
168.118964	10.391405	26398.468889	553.541223
174.228335	9.350457	27422.756667	591.193626
178.115617	9.350457	29240.746111	553.541223
176.088279	9.697395	29585.411667	544.753024
183.979469	9.350457	29704.345556	541.582722
190.690322	9.003563	30391.249444	542.992172
193.457887	9.003563	31784.475000	591.193626
194.951356	8.310983	34046.646111	555.646391
197.819528	8.310983	32828.180556	591.193626
203.833729	8.656714	35138.896111	542.639873
208.158489	7.964178	35884.053333	542.992172
210.169913	8.310983	36699.600000	557.399510
214.725267	7.964178	38857.400556	545.457066
221.293909	7.964178	40473.930556	544.400939
220.819633	8.309909	40034.603333	591.539851
222.836202	7.963149	39510.323333	591.539851
224.798615	7.617418	39435.079444	544.048811
230.539077	8.309909	42255.511667	541.230253
231.577805	7.963149	43772.525556	543.344427
235.622214	7.270702	42449.689444	591.539851
240.225950	7.270702	45478.862778	553.892193
239.424500	7.270702	47141.510000	541.935148
243.641040	7.616433	47653.653889	591.886030
248.675421	6.924031	48296.867778	591.886030
247.807172	7.616433	47194.908889	591.886030
256.826030	7.616433	48483.763889	553.541223
254.368596	6.924031	51556.627222	591.886030
263.337325	7.616433	48918.236667	553.892193
266.117206	7.616433	50360.006667	591.886030
269.201770	7.269762	51670.706667	543.344427
265.706540	7.269762	52027.508333	591.886030
269.447546	7.269762	53464.423889	591.886030
268.939696	6.923136	53762.972222	591.886030
274.846586	7.269762	54095.501667	591.886030
275.592879	7.962119	52908.590000	592.232165
268.968079	6.923136	52648.877222	592.232165
278.487522	7.615448	54789.687222	592.232165
283.796177	7.615448	53476.560000	592.232165
277.749356	7.615448	57017.877222	592.232165
277.557760	7.268822	55826.111111	592.232165
278.655859	7.268822	55991.162222	592.232165
284.537836	7.268822	54641.626667	553.541223
282.265735	7.268822	57083.412222	592.232165
279.604806	7.268822	58195.080000	592.232165
280.112145	6.922240	58020.320000	592.232165
