power (mW)	FWHM	peak value	peak location
0.083065	135.457740	3966.081111	542.992172
0.083673	157.416107	4082.587778	538.408970
0.088025	126.271538	3934.527222	540.525187
0.120130	113.003577	3980.644444	543.344427
0.138295	85.319666	4051.033889	543.344427
0.158780	41.381461	4000.062222	559.852058
0.182140	56.732206	4019.480000	542.992172
0.231426	52.012282	4085.015000	563.352009
0.272447	43.876110	3953.945000	543.344427
0.327520	79.204572	4024.334444	541.582722
0.368413	54.752430	4019.480000	543.344427
0.434545	134.524746	4048.606667	538.761779
0.501275	143.513188	4080.160556	542.992172
0.563538	96.607808	4068.024444	543.344427
0.653552	87.602906	4082.587778	539.114546
0.735000	76.899540	4228.221111	566.498243
0.819056	63.959324	4131.132222	566.498243
0.916399	60.499070	3953.945000	543.344427
1.000153	75.747044	4070.451667	543.344427
1.101014	50.854634	3973.362778	540.525187
1.203179	50.854634	3973.362778	540.525187
1.320530	53.910599	3184.515556	543.344427
1.457993	33.828222	3152.961667	542.287532
1.555122	41.076239	3121.407778	543.696641
1.704101	28.269763	3128.689444	565.799385
1.772802	28.606186	3262.186667	544.400939
1.939679	27.561374	3359.275556	545.105066
2.104268	23.039048	3820.447778	542.639873
2.250139	21.642762	4143.268333	543.696641
2.418975	18.506903	4604.440556	541.230253
2.562619	18.158857	4888.425556	543.344427
2.696242	15.020700	5335.034444	541.582722
2.907968	13.973624	5839.896667	543.344427
2.964552	13.625137	6055.919444	541.582722
3.243295	12.230750	6420.002778	540.877741
3.310087	12.926416	7026.808333	541.935148
3.590880	10.832955	7626.332222	543.696641
3.682546	10.484161	7990.415556	541.230253
3.844582	9.785219	8835.088889	544.753024
4.013573	9.436337	9279.270556	542.639873
4.272356	8.388381	10422.492222	542.639873
4.475432	8.388381	10784.148333	540.525187
4.620449	7.689350	11725.910556	544.400939
4.878532	7.689350	12000.186667	542.287532
4.958374	7.689350	12376.406111	565.100353
5.192785	7.689350	13497.782778	542.992172
5.289117	7.340293	14114.297222	540.172591
5.470942	6.990320	14094.879444	565.100353
5.756425	6.641219	15638.592778	538.408970
5.936230	6.641219	16500.256667	539.467270
5.940151	6.291289	17468.718333	544.048811
6.234268	6.641219	17507.553889	538.408970
6.417159	5.942144	19133.792778	543.344427
6.633806	5.942144	19080.393889	542.992172
6.656324	5.942144	19427.486667	541.582722
6.844337	5.942144	21107.124444	543.344427
7.235142	5.942144	21575.578333	543.344427
7.514684	5.942144	22544.040000	543.344427
7.564165	5.942144	23260.070556	540.525187
7.679877	5.243069	25298.937222	542.287532
8.177859	5.243069	26048.948889	565.100353
8.049914	5.243069	26092.638889	542.992172
8.644259	5.243069	27119.353889	565.100353
8.626527	5.243069	27641.206667	542.639873
8.777828	5.243069	28296.556667	540.877741
9.097839	5.243069	28565.978333	541.582722
9.209233	5.243069	30107.264444	538.408970
9.270852	5.243069	31036.890556	543.344427
9.347290	5.243069	29070.840556	542.992172
9.488951	5.243069	33172.846111	544.400939
9.714083	5.243069	33405.859444	542.992172
9.867525	5.243069	33842.759444	565.100353
10.092405	5.243069	34357.330556	538.408970
10.251922	5.243069	35277.247778	539.819951
10.298127	5.243069	35728.711111	565.100353
10.710306	5.243069	36755.426111	543.344427
10.733699	5.243069	36956.885556	541.582722
10.795993	5.243069	38143.797222	565.100353
11.066096	4.543993	40588.010000	541.230253
11.082401	4.543993	39932.660000	565.100353
11.272586	5.243069	40039.457778	543.344427
11.206144	4.543993	41607.443333	565.100353
11.496979	4.543993	41311.322222	565.100353
11.480231	4.543993	42755.519444	543.696641
11.577926	4.543993	44112.336667	565.100353
11.763957	5.243069	42015.216667	543.344427
11.906813	4.543993	44187.580556	541.935148
11.969621	4.543993	45289.539444	541.582722
11.935432	4.543993	45049.244444	565.100353
12.225515	4.543993	45270.121667	543.344427
12.380509	4.543993	43706.990556	565.449891
12.156293	4.543993	44821.085556	565.100353
12.283689	4.543993	48374.538889	565.100353
12.317858	4.543993	46046.832778	565.100353
12.594509	4.543993	46510.432222	542.639873
12.579447	4.543993	47243.453333	565.449891
12.520729	4.893226	45709.448889	543.344427
12.558807	4.543993	48476.482222	565.100353
12.594639	4.543993	48947.363333	565.100353
12.671354	4.543993	49073.578889	565.449891
12.711524	4.543993	49413.390000	565.449891
12.434324	4.543993	46367.226111	540.877741
12.920336	4.543993	47677.926111	565.449891
12.592555	4.543993	47066.266111	565.449891
12.626218	4.543993	41126.853333	542.287532
