power (mW)	FWHM	peak value	peak location
-0.064834	20.686899	52.913444	0.000000
-0.065851	20.686899	52.913444	0.000000
-0.048751	24.578514	65.049556	0.000000
-0.027592	6.941875	114.079444	0.000000
-0.010144	14.592818	196.605000	0.000000
0.018160	25.000130	282.528667	0.000000
0.096715	29.148050	449.521556	580.438558
0.129928	30.532099	528.163556	578.699873
0.169808	31.911688	687.874778	579.395479
0.250152	29.500712	902.926667	579.743217
0.283733	30.881025	1010.695333	579.047698
0.355312	31.225990	1285.942333	578.699873
0.429307	30.539929	1510.217667	579.395479
0.529675	30.198696	1810.707778	578.699873
0.551591	30.888942	2069.449667	578.004089
0.741074	31.233998	2528.194667	578.352003
0.842799	30.547753	2743.732000	578.004089
0.878393	30.892899	2963.152889	578.004089
1.026999	30.892899	3299.565889	578.004089
1.064446	30.892899	3466.073333	578.004089
1.193785	30.892899	4066.082667	577.656131
1.256436	29.861146	4342.300556	577.656131
1.456095	30.551663	5018.524667	577.308129
1.555142	29.515820	5470.958889	577.308129
1.665468	30.555572	5891.839222	577.308129
1.833094	29.174178	6558.839889	576.960083
1.962401	29.174178	6981.176556	576.960083
2.188850	28.483210	7848.665778	576.611992
2.222729	28.483210	8077.795556	576.611992
2.449593	28.486848	8620.037000	576.611992
2.553215	28.486848	8916.158111	576.263858
2.816786	28.486848	9705.490778	576.611992
2.962312	27.449924	10543.853333	576.263858
3.095728	27.104193	10788.517333	576.263858
3.280422	27.104193	11502.120667	576.263858
3.512657	26.761829	12544.369889	575.915679
3.653672	26.415963	13351.664000	575.915679
3.787070	26.070053	14078.374333	575.567456
4.157599	25.724097	15024.020111	575.567456
4.235672	25.724097	15520.144333	575.567456
4.461760	25.724097	16382.293667	575.219189
4.526213	25.378097	17271.627889	575.219189
4.811969	25.381328	18439.121778	575.219189
4.961304	25.727373	16014.812222	575.219189
5.070542	25.381328	18627.474222	575.219189
5.403909	25.381328	20419.735111	574.870879
5.405046	24.689103	21042.074889	574.870879
5.708324	23.996700	22987.250778	574.870879
6.065691	23.996700	23550.366333	574.870879
6.166969	23.650431	24134.841444	574.522524
6.194369	23.999751	24539.216667	574.522524
6.567686	23.999751	25913.509889	574.522524
6.735146	23.653437	27016.925111	574.522524
6.863586	23.653437	27184.888889	574.522524
7.282687	23.307079	29231.037222	574.174125
7.280017	22.960676	29645.121333	574.174125
7.711986	22.614228	31472.334222	574.174125
7.774569	22.614228	30944.656111	574.174125
7.907979	22.614228	33038.863444	574.174125
8.224450	22.614228	33703.922333	574.174125
8.137753	22.617099	34636.461111	573.825682
8.681862	22.270562	37640.391333	573.825682
8.961714	22.270562	37836.510889	573.825682
8.985460	22.270562	38369.528889	573.825682
9.163477	22.270562	39603.043222	573.825682
9.314286	22.270562	39111.773444	573.825682
9.410470	21.923980	40808.401778	573.825682
9.740835	21.923980	43211.837222	573.477195
9.867287	21.923980	43545.823000	573.477195
9.945478	21.577354	44729.822000	573.477195
10.318550	21.926761	45163.323889	573.477195
10.384781	21.577354	44847.785000	573.477195
10.543890	21.926761	45945.374889	573.477195
10.959258	21.926761	46608.006556	573.477195
11.018918	21.926761	47322.580778	573.477195
11.043935	21.926761	47358.989111	573.477195
11.242208	21.580090	48779.885000	573.477195
11.323972	21.580090	49576.984778	573.477195
11.529915	21.580090	50561.466111	573.477195
11.655506	21.580090	51708.571333	573.477195
11.536259	21.580090	52150.811222	573.477195
11.971628	21.929541	53484.327111	573.128664
11.879806	21.929541	53497.919556	573.477195
12.163205	21.929541	54875.610889	573.128664
12.263825	21.929541	54703.278111	573.128664
12.605462	21.929541	55991.647667	573.128664
12.437072	22.276211	55729.993111	573.128664
12.554381	21.929541	56287.768778	573.128664
12.666206	22.276211	56918.846556	573.128664
12.598280	21.929541	51798.864000	573.128664
12.825082	22.276211	57118.849667	573.128664
13.066804	22.276211	57118.849667	573.128664
13.105647	22.625706	58906.741556	572.780089
13.271964	22.625706	58650.426889	573.128664
13.278187	22.625706	59110.142778	573.128664
13.426090	22.625706	58343.140556	573.128664
13.269528	22.625706	58747.030333	573.128664
13.385439	22.972332	58823.245111	573.128664
13.622918	22.972332	59801.415667	572.780089
13.327102	22.625706	58602.367889	573.128664
13.555131	22.625706	59088.297778	573.128664
13.414718	22.625706	58356.733000	573.128664
13.646082	22.625706	58308.674000	573.128664
13.493733	22.625706	57784.394000	573.128664
13.732218	22.625706	58028.087111	573.128664
