power (mW)	FWHM	peak value	peak location
0.061038	116.084116	3315.585556	545.105066
0.061844	146.042554	3274.322778	542.992172
0.068405	125.484261	3223.351111	547.216422
0.077503	134.239656	3211.215000	539.819951
0.097459	95.274369	3172.379444	543.344427
0.170483	107.327985	3133.543889	542.992172
0.296642	141.283279	3303.449444	542.639873
0.333215	128.318073	3264.613889	542.287532
0.319675	82.916194	3308.303889	544.048811
0.400057	35.135908	3189.370000	542.639873
0.459728	129.169780	3208.787778	542.639873
0.505255	125.319776	3206.360556	542.639873
0.602757	129.948520	3179.661111	544.048811
0.682752	116.527941	3218.496667	542.992172
0.749987	131.599457	3201.506111	542.287532
0.833962	135.364071	3116.553333	542.287532
0.907664	73.219719	3189.370000	542.992172
0.885106	79.731648	3310.731111	542.639873
0.893922	117.689308	3271.895556	543.344427
1.083679	78.185948	3233.060000	543.344427
1.179984	129.839245	3220.923889	544.048811
1.292551	137.118485	3301.022222	542.992172
1.412030	85.703508	3230.632778	543.344427
1.488923	139.246528	3267.041111	538.408970
1.659688	87.502369	3366.557222	542.639873
1.739785	59.803753	3196.651667	542.992172
1.893447	146.607311	3223.351111	543.344427
2.023694	49.579872	3347.139444	539.467270
2.138902	29.000431	3366.557222	542.639873
2.328530	26.198717	3342.285000	541.230253
2.382595	19.226886	3118.980556	542.992172
2.597461	19.217287	3211.215000	543.344427
2.747954	17.828581	3264.613889	543.344427
2.910146	17.828581	3250.050556	539.467270
3.138380	16.083702	3150.534444	543.344427
3.258055	16.430272	3315.585556	540.877741
3.410272	14.686959	3662.678333	542.992172
3.534530	15.382498	3597.143333	541.935148
3.709930	13.638746	3847.147222	542.639873
3.865597	12.590401	4582.595556	543.344427
3.982183	12.591968	4640.848889	541.935148
4.317259	11.892417	4956.387778	543.344427
4.386339	11.543360	5053.476667	543.344427
4.668942	11.543360	5245.227222	542.992172
4.779318	11.543360	5521.930556	539.819951
4.907753	11.194259	5978.248333	545.105066
5.039547	11.543360	6352.040556	543.344427
5.230138	10.843765	6403.012222	542.992172
5.272645	10.494620	6784.086111	540.525187
5.614935	10.494620	7359.337778	541.935148
5.784795	10.145431	7759.829444	541.582722
5.967451	10.145431	7898.181111	542.992172
6.169010	10.145431	7898.181111	542.992172
6.384296	9.445748	8645.765556	543.344427
6.497789	9.445748	9106.937778	542.992172
6.708298	9.445748	9505.002222	562.652366
6.867564	9.096472	9718.597778	543.344427
7.156706	8.746065	10677.350556	542.287532
7.269786	9.096472	10631.233333	542.992172
7.599976	9.096472	11000.171111	542.639873
7.742879	9.096472	11240.466111	562.302480
7.824160	8.746065	11194.348889	543.344427
8.040266	8.746065	11890.961667	542.639873
8.176784	8.396745	12781.752222	544.753024
8.495126	8.396745	13000.202222	545.105066
8.537364	8.746065	12840.005556	543.344427
8.728045	8.396745	13323.022778	562.302480
8.739463	8.396745	13687.106111	542.639873
9.099051	8.396745	13937.110000	545.105066
9.282973	8.396745	14344.883333	542.639873
9.465172	8.396745	15014.796667	542.992172
9.601340	7.697018	15815.780000	541.582722
9.657609	8.046381	15449.269444	542.639873
9.973090	7.697018	16124.037222	542.639873
10.036654	7.697018	16900.748333	543.344427
10.315490	7.697018	16313.360556	543.344427
10.371542	7.697018	16806.086667	542.287532
10.604993	7.697018	17221.141667	544.048811
10.703324	7.697018	18175.040000	543.344427
10.944569	7.697018	18849.807778	562.302480
10.969917	7.697018	18735.728333	542.287532
10.935811	7.697018	18172.612778	540.877741
11.104242	7.347611	20187.207222	543.344427
11.479921	7.347611	20192.061667	543.344427
11.673322	7.697018	19985.747778	541.230253
11.837645	7.347611	19723.607778	542.639873
11.480466	7.347611	20971.200000	542.287532
11.734724	7.347611	21519.752222	562.302480
11.977508	7.697018	21230.912778	542.992172
11.712937	7.347611	20886.247222	542.639873
11.783538	7.347611	20886.247222	542.639873
11.857377	7.347611	20604.689444	542.992172
11.752814	7.697018	20138.662778	541.230253
12.104952	7.697018	21153.241667	544.400939
12.166590	6.997290	21582.860000	542.992172
12.107168	7.347611	21449.362778	562.302480
12.196913	6.997290	21284.311667	543.344427
12.426427	7.347611	21451.790000	541.230253
12.507786	6.997290	21626.550000	543.344427
12.083636	6.997290	21694.512222	542.992172
12.522398	6.997290	22252.773333	542.287532
12.437307	6.997290	22155.684444	543.344427
12.248381	7.346697	20956.636667	542.287532
12.228740	7.347611	20655.661111	562.302480
12.507968	7.347611	21898.398889	542.992172
