power (mW)	FWHM	peak value	peak location
0.602385	115.841279	882.538000	573.128664
0.646280	141.454485	853.896778	567.546203
0.852525	163.040205	885.936111	573.477195
1.042139	133.783957	868.460111	573.477195
1.134029	159.884878	919.917222	574.174125
1.332078	151.081370	959.723667	573.825682
1.514609	122.931674	1019.433333	573.825682
1.738719	146.079738	1098.560778	572.780089
1.884914	139.748153	1139.338111	572.431471
2.068739	111.195694	1232.543444	573.477195
2.288392	82.173751	1289.825889	573.477195
2.310482	69.783098	1361.671667	572.431471
2.784610	68.368312	1464.100444	573.128664
2.918358	62.193749	1514.101222	572.431471
3.280999	55.294684	1666.045333	572.082808
3.668801	50.796684	1810.707778	571.734101
3.896864	49.411369	1849.057889	571.385351
4.254095	47.674677	2009.254556	571.734101
4.496376	44.200591	2167.024000	571.385351
4.733764	42.830221	2283.530667	571.036557
5.106837	38.666528	2478.193889	571.036557
5.561511	37.969864	2595.671444	570.687718
5.589853	36.581153	2704.896444	570.687718
5.956109	35.888929	2837.422778	564.051477
6.692157	26.856879	3808.797111	562.652366
6.693363	23.728255	4442.302111	562.302480
7.567313	20.947244	5091.341333	562.302480
7.517716	18.511538	5779.701556	561.952550
8.355702	10.493314	7536.039556	561.952550
8.492852	8.047382	8630.231333	561.952550
8.847258	7.348524	10147.730667	561.602576
8.979222	7.698931	10306.471000	561.602576
9.843984	6.649491	13000.687667	561.602576
10.258600	6.299910	16395.886111	561.602576
9.931192	6.650317	15788.595111	561.252560
10.621646	6.300692	19574.090889	561.252560
11.515944	5.951023	23339.683444	560.902499
12.096170	5.951023	27190.228778	560.902499
11.209581	5.601311	27861.598444	560.902499
12.670606	5.601311	32496.622000	560.902499
13.055865	5.951761	34747.627889	560.552395
13.316542	5.602005	37091.353667	560.552395
14.059615	5.602005	41688.512556	560.552395
13.595580	5.602005	39626.830000	560.552395
14.917580	5.952499	43489.996889	560.552395
15.337444	5.952499	46970.148111	560.552395
16.204595	5.952499	43812.332000	560.202248
15.428580	5.602005	49989.127111	560.552395
16.608966	5.952499	45491.484333	560.202248
17.548290	5.952499	47831.812000	560.202248
18.041390	5.952499	48658.523889	560.202248
19.045312	5.952499	49361.932889	560.202248
19.056137	5.952499	47216.753889	560.202248
19.760492	5.952499	44982.253111	560.202248
19.126909	5.952499	43991.946444	560.202248
19.931085	5.952499	41271.515778	560.202248
19.363491	5.952499	40595.291667	560.202248
20.139404	6.302255	37752.043556	560.202248
21.682155	6.302255	37795.733556	560.202248
22.314885	5.952499	38478.753889	560.202248
20.820305	6.303036	18670.678778	560.202248
22.256831	23.094660	869.431000	539.467270
23.317607	135.439797	863.605667	542.639873
22.679069	139.562407	879.139889	554.944841
24.865167	145.334918	872.829111	542.992172
22.904994	149.048184	864.091111	541.230253
23.832256	40.480965	883.508889	551.785731
24.057459	78.728152	878.169000	539.467270
24.386309	157.358866	864.091111	541.935148
26.342673	96.671011	867.003778	542.992172
24.417780	59.079612	872.829111	540.525187
24.942379	111.340533	859.722111	539.819951
26.465353	114.000814	879.625333	540.172591
26.351375	24.873527	891.761444	539.819951
28.516110	145.020420	853.411333	539.819951
25.231079	141.139520	875.256333	539.467270
27.341095	77.300668	879.139889	541.582722
27.556665	31.363713	889.819667	544.400939
27.762158	39.385386	875.256333	548.623136
27.873715	26.048170	905.353889	538.761779
26.784803	26.161664	856.324000	542.287532
28.025949	129.512361	862.634778	545.809023
28.063202	142.036573	867.489222	544.753024
28.532359	121.534741	862.149333	540.877741
28.732742	31.113821	881.567111	547.568165
29.407193	89.093458	912.635556	543.344427
29.336804	8.379800	910.693778	540.525187
28.610459	32.869566	887.392444	540.877741
28.451048	151.747422	860.693000	540.172591
28.067420	119.213234	887.877889	543.344427
29.527433	25.124652	870.401889	542.992172
29.047824	161.008349	900.499444	542.992172
30.325456	154.844917	847.100556	547.919865
30.007744	108.587885	889.819667	541.582722
30.143866	34.593685	864.091111	542.992172
27.927722	43.449367	883.508889	544.400939
29.707123	20.147594	887.877889	544.048811
29.721453	22.124112	870.887333	544.048811
29.927918	107.167955	869.916444	542.639873
30.263799	53.113989	879.625333	547.919865
30.159953	60.099465	904.383000	541.230253
