power (mW)	FWHM	peak value	peak location
0.908374	124.296064	922.344444	541.230253
1.195939	103.856931	898.072222	574.870879
1.430010	142.272965	975.743333	570.687718
1.795956	134.349009	1063.123333	540.525187
2.010669	97.589506	1235.456111	572.082808
2.313563	91.585974	1366.526111	573.128664
2.744205	76.314809	1456.333333	573.477195
3.211501	55.940251	1686.919444	539.114546
3.627540	51.823908	1808.280556	573.128664
4.330048	44.562722	2131.101111	572.431471
4.726677	37.619154	2390.813889	571.385351
5.274986	36.581153	2665.090000	571.734101
5.890903	32.408773	3199.078889	539.467270
6.583677	28.595393	3609.279444	563.002209
6.934261	23.036158	4611.722222	562.302480
7.600519	18.161131	6480.683333	562.302480
8.499782	7.697018	8538.967778	561.952550
8.885189	6.649491	14053.616667	561.602576
9.798516	6.299910	16366.759444	561.602576
10.701795	6.300692	21609.559444	561.252560
11.566066	5.250903	31456.800000	561.252560
12.525791	5.951761	35194.722222	560.902499
13.505065	5.602005	47279.861667	538.761779
14.304901	5.602005	53224.128889	560.552395
15.409613	5.952499	50355.152222	560.202248
16.515863	5.952499	56000.871111	560.202248
17.082496	5.602005	60486.377778	560.552395
18.947491	5.952499	51949.837222	560.202248
19.432126	5.952499	52544.506667	560.202248
19.452298	6.651967	43874.468889	560.552395
23.027217	7.002505	35257.830000	560.202248
22.178742	104.803588	883.508889	544.048811
23.770853	86.824220	769.429444	539.114546
25.098384	47.597757	767.002222	545.457066
24.287240	113.867978	776.711111	553.892193
26.860105	28.585136	742.730000	542.639873
27.847210	46.135824	856.809444	540.525187
29.019311	141.837311	803.410556	538.056118
31.281718	4.233454	779.138333	544.753024
32.786553	153.042717	808.265000	545.105066
33.971115	17.752283	764.575000	538.761779
32.154170	66.000825	808.265000	545.809023
35.300514	80.153885	776.711111	542.639873
37.088952	62.459067	866.518333	547.919865
36.947302	124.697724	844.673333	539.114546
37.161642	75.529703	786.420000	541.582722
39.297816	42.580223	825.255556	543.344427
41.126870	132.566903	817.973889	551.434504
41.981935	100.726617	839.818889	539.114546
43.162382	66.198472	825.255556	541.230253
43.911584	111.606296	796.128889	541.582722
45.021382	81.362548	771.856667	544.753024
47.035935	110.779232	791.274444	542.639873
47.913414	90.717662	752.438889	540.525187
48.700932	151.666599	839.818889	540.525187
49.210992	128.356703	808.265000	540.525187
52.170371	76.722761	771.856667	541.230253
53.230470	84.326581	830.110000	543.344427
55.263170	59.280752	774.283889	539.114546
55.382820	132.283226	830.110000	542.287532
57.536698	77.810373	742.730000	538.761779
60.049381	27.872664	803.410556	546.864636
55.998983	145.554642	803.410556	549.326236
58.361016	102.538784	779.138333	541.230253
56.854386	74.047902	876.227222	543.696641
62.614535	71.819510	881.081667	553.541223
62.380227	144.609795	762.147778	540.525187
62.069394	140.026315	885.936111	539.114546
61.446415	134.578031	834.964444	541.935148
66.475278	126.973888	827.682778	540.172591
67.912563	131.125783	750.011667	546.512808
66.580670	17.423629	813.119444	539.114546
68.178964	45.464055	771.856667	546.512808
69.310559	122.780995	847.100556	542.992172
72.191309	74.090024	832.537222	539.819951
73.955335	106.355964	837.391667	547.919865
72.840770	85.695343	793.701667	540.525187
74.198393	32.517176	871.372778	544.048811
74.542432	62.721820	791.274444	541.230253
76.159860	139.123350	759.720556	540.172591
75.418435	139.919076	834.964444	543.344427
73.483891	155.116270	737.875556	550.029164
75.788424	59.707975	747.584444	539.114546
78.140580	25.790900	856.809444	546.512808
78.518460	95.965900	822.828333	548.974707
78.396211	18.464674	825.255556	546.160937
75.622758	131.512059	762.147778	541.935148
77.697423	115.551013	827.682778	542.287532
77.497824	121.649168	813.119444	539.467270
77.154885	91.270414	779.138333	541.935148
77.874425	35.320874	803.410556	547.919865
79.897588	44.278973	815.546667	547.919865
81.047238	65.936624	813.119444	542.287532
77.986827	126.087871	839.818889	543.344427
77.956915	71.145262	832.537222	542.992172
79.628901	69.674902	779.138333	545.809023
79.650339	145.866377	837.391667	547.216422
78.518409	98.677873	815.546667	539.467270
78.460227	37.107330	769.429444	539.467270
83.130378	92.714377	839.818889	550.029164
