power (mW)	FWHM	peak value	peak location
0.318845	158.601628	908.509278	572.082808
0.411571	115.518101	870.159167	571.734101
0.537355	114.767052	896.373167	572.431471
0.684049	161.584454	873.314556	573.477195
0.849141	135.055348	897.344056	573.477195
0.980796	141.345579	880.838944	571.734101
1.181241	136.271018	881.567111	572.780089
1.320565	144.981939	922.344444	571.734101
1.571371	151.686815	939.577722	571.734101
1.775258	161.606163	989.578500	571.385351
1.786437	164.055899	1029.142222	571.734101
2.123081	126.317171	1079.143000	571.385351
2.208795	153.432129	1106.085167	571.036557
2.501591	155.842417	1181.814500	570.687718
2.749545	130.535939	1202.688611	570.338836
3.101395	82.215976	1283.272389	568.593768
3.282849	77.771821	1309.971833	569.989910
3.422534	77.370166	1376.235000	569.291927
3.952970	67.057430	1440.070944	567.895435
4.403226	63.288360	1483.760944	567.546203
4.633990	61.530290	1595.413167	566.498243
5.419579	58.076531	1665.074444	564.401146
5.177778	52.559485	1730.852167	564.401146
5.539336	54.282501	1768.716833	563.701765
5.790295	50.483980	1816.533111	563.002209
6.425302	47.365692	1939.593278	562.652366
6.459108	47.008516	2014.109000	561.952550
7.116861	47.365692	1977.943389	561.952550
7.482468	39.041953	2320.667167	561.252560
7.806868	38.349639	2415.328833	561.252560
8.545643	37.306134	2450.523556	561.252560
8.797517	33.485807	2745.916500	560.902499
8.880537	31.751784	2857.568722	560.902499
9.290842	31.053963	2993.250444	560.552395
10.123321	30.359953	3056.115500	560.552395
10.336336	28.967764	3193.010833	560.552395
10.253870	28.273310	3272.381000	560.202248
11.339146	27.231295	3509.520611	560.202248
11.723096	27.926016	3413.402611	560.202248
11.819090	27.929517	3432.092222	559.852058
12.459040	26.883868	3687.436000	559.852058
13.049183	25.841321	3711.708222	559.852058
12.878378	25.841321	3841.079167	559.852058
13.691322	27.582135	3595.929722	559.852058
14.207284	27.582135	3662.678333	559.501824
15.015203	26.887236	3771.660611	559.501824
14.621782	28.627738	3627.240889	559.852058
15.551986	31.755772	3425.538722	559.852058
16.094584	28.975032	3660.979278	559.852058
17.635769	28.627738	3643.017833	559.852058
16.561432	32.800573	3303.934889	560.902499
18.050196	35.227582	3171.408556	561.952550
17.980573	33.494227	3312.672889	561.252560
17.971465	31.755772	3555.395111	560.902499
18.611128	32.453679	3420.927000	561.252560
19.076679	33.840987	3278.449056	561.602576
19.647648	32.796453	3436.946667	561.252560
19.950555	33.840987	3201.991556	561.602576
19.569458	38.008202	2275.035389	561.252560
21.572582	93.666076	796.614333	539.819951
20.672441	93.666076	796.614333	539.819951
21.500692	140.081985	794.429833	542.992172
20.864368	55.565776	791.517167	553.541223
22.212484	41.071351	772.099389	547.568165
23.794134	139.525410	760.206000	541.230253
22.988128	22.725279	793.944389	543.344427
22.291856	153.104366	787.148167	539.819951
24.924385	48.717110	861.178444	542.287532
24.794526	139.247147	889.091500	538.408970
23.922216	28.952342	892.004167	541.230253
25.637578	52.390479	880.353500	538.761779
24.627789	45.373051	877.683556	539.819951
24.667226	137.949680	879.382611	545.105066
26.366528	87.425000	888.848778	540.525187
26.106704	89.793549	891.761444	542.287532
25.543918	89.793549	891.761444	542.287532
26.154372	24.197823	883.023444	542.287532
26.279064	86.721726	897.829500	541.230253
27.366731	129.687255	872.100944	543.344427
27.670361	70.699243	880.596222	543.344427
28.537686	67.240605	900.742167	541.230253
28.294511	133.588928	882.538000	541.230253
28.073313	19.064420	887.149722	542.992172
29.981205	30.138547	897.829500	540.877741
28.431431	152.352376	887.635167	541.230253
29.490485	151.434560	872.100944	542.287532
29.583741	117.723469	875.984500	541.935148
29.274114	128.791003	872.829111	542.992172
28.907604	29.349251	908.266556	543.344427
28.307925	15.402091	882.538000	539.114546
30.577304	49.567045	882.538000	544.048811
29.422017	84.024254	894.916833	544.048811
30.649429	152.546549	896.373167	544.048811
29.746635	149.882118	896.615889	544.400939
28.669648	149.882118	896.615889	544.400939
30.872089	22.554413	887.635167	542.287532
28.707301	29.140278	857.537611	542.639873
29.249477	43.576768	858.508500	539.467270
31.404877	74.674128	864.819278	540.172591
29.661078	146.669371	898.557667	544.400939
29.392003	77.959509	892.004167	541.230253
