power (mW)	FWHM	peak value	peak location
-0.038929	105.747125	932.053333	544.048811
-0.031726	112.664469	907.781111	542.992172
0.046640	142.310691	878.654444	540.172591
0.181532	129.527791	854.382222	538.761779
0.305310	111.064991	934.480556	549.326236
0.652017	145.769137	915.062778	543.344427
0.950856	115.277769	958.752778	544.753024
1.168024	146.885545	878.654444	565.449891
1.527336	101.414700	929.626111	545.457066
1.807348	137.329955	1024.287778	561.952550
2.282962	147.179438	1033.996667	566.148836
2.633387	117.147756	1087.395556	564.401146
3.104315	115.569867	1116.522222	539.819951
3.435168	93.350019	1242.737778	569.291927
3.817584	60.552896	1351.962778	542.287532
4.450562	64.687366	1402.934444	568.942870
5.035627	57.094900	1517.013889	568.942870
5.463329	58.779459	1638.375000	567.546203
6.024044	47.383654	1725.755000	569.989910
6.984282	42.868121	2026.730556	567.196927
7.699504	42.522300	2082.556667	539.114546
8.538600	39.412854	2247.607778	567.546203
8.862141	36.969126	2490.330000	567.546203
9.412708	33.147422	2757.324444	567.895435
10.932187	33.506845	2873.831111	567.196927
11.241377	28.283943	3390.829444	566.498243
12.416248	30.020413	3514.617778	566.498243
13.329797	27.936516	3784.039444	565.799385
14.337507	26.546365	4191.812778	565.100353
15.443697	26.195439	4373.854444	564.750771
15.654575	25.496908	4621.431111	564.750771
17.505444	23.755031	4730.656111	564.750771
17.921440	23.056365	5019.495556	564.750771
19.525036	23.053482	5143.283889	565.100353
20.410940	22.354902	5458.822778	565.100353
21.272936	21.659030	5638.437222	565.449891
21.816883	21.656321	5980.675556	565.449891
23.666348	20.259156	6009.802222	565.799385
24.212129	19.911110	6558.354444	565.799385
26.218515	19.560573	6580.199444	565.799385
26.675017	19.210079	6711.269444	565.799385
27.288761	18.861989	6992.827222	566.148836
28.203377	18.511538	6924.865000	566.148836
31.506626	17.812996	7536.525000	566.148836
31.439719	18.859628	7762.256667	565.799385
31.489580	18.859628	7356.910556	566.148836
35.300438	18.161131	7551.088333	539.467270
34.656759	16.766231	8621.493333	565.799385
36.834189	17.114453	8439.451667	566.148836
37.807777	18.161131	4711.238333	566.148836
38.936836	17.114453	8728.291111	565.799385
40.037714	17.114453	8400.616111	566.148836
41.200005	17.462632	8068.086667	566.148836
42.900248	18.161131	8002.551667	566.148836
44.161577	17.114453	8221.001667	566.148836
45.625819	17.810767	7869.054444	566.148836
46.700790	17.810767	7771.965556	566.148836
44.621832	18.857267	7383.610000	566.148836
48.541439	19.207675	6801.076667	566.148836
50.698881	19.205270	6941.855556	566.148836
48.126416	18.509221	7271.957778	566.498243
53.058776	18.161131	6771.950000	566.148836
54.727186	18.857267	6679.715556	566.148836
54.700156	64.514460	817.973889	540.877741
55.610338	90.678797	856.809444	539.114546
57.718187	117.438211	905.353889	543.696641
56.966496	107.321350	890.790556	541.582722
55.181024	129.101117	898.072222	541.230253
57.298402	106.070042	895.645000	544.400939
60.063228	80.902288	830.110000	539.819951
61.504136	125.984458	837.391667	554.944841
61.024438	84.138064	805.837778	548.271522
65.760877	148.676437	888.363333	545.457066
65.900754	100.848689	817.973889	547.568165
65.214758	130.054369	733.021111	539.114546
65.450853	44.024080	754.866111	544.400939
66.932240	57.246048	813.119444	541.582722
68.917333	56.525425	856.809444	543.696641
68.705368	78.030566	832.537222	542.287532
72.997233	77.660759	815.546667	540.877741
68.973420	104.273496	847.100556	546.512808
74.681868	42.398736	847.100556	542.287532
71.844069	117.262562	791.274444	540.172591
71.834705	137.263769	767.002222	538.761779
71.484240	17.394510	798.556111	541.230253
74.789021	85.968911	871.372778	542.639873
72.185924	145.373484	767.002222	539.819951
71.404485	127.324988	769.429444	539.467270
71.150140	77.066090	767.002222	540.525187
76.335152	36.065315	822.828333	540.877741
75.312721	80.877197	827.682778	541.935148
78.922036	152.895166	774.283889	542.287532
78.120023	111.856895	864.091111	549.677721
77.097203	134.757291	805.837778	555.295638
72.057520	99.093675	781.565556	543.344427
78.232087	57.318448	817.973889	544.048811
73.055686	153.744402	878.654444	540.172591
77.222296	154.182611	859.236667	541.582722
77.967388	44.157855	786.420000	539.114546
80.524715	75.471409	876.227222	540.172591
