power (mW)	FWHM	peak value	peak location
2.037099	110.927326	3087.426667	542.287532
2.119566	110.927326	3087.426667	542.287532
2.204279	61.922849	3177.233889	553.541223
2.403133	85.474166	3216.069444	542.639873
2.711308	88.947477	3128.689444	542.639873
3.207033	58.531287	3118.980556	542.287532
3.638787	125.049381	3077.717778	538.056118
4.469596	135.594117	3080.145000	541.582722
5.511166	91.867878	3167.525000	542.287532
6.415770	81.657988	3138.398333	542.992172
7.580024	71.976354	3201.506111	542.287532
9.050030	42.107146	3276.750000	571.036557
10.153130	44.178156	3199.078889	540.172591
11.548733	36.894498	3216.069444	543.344427
13.034511	34.823845	3597.143333	542.639873
14.669703	34.136026	4065.597222	540.877741
16.384190	29.978922	4623.858333	567.546203
18.560261	30.317943	5157.847222	543.344427
20.513496	31.357421	5322.898333	542.992172
21.785592	26.850120	5626.301111	567.546203
24.673896	26.503092	6019.511111	543.344427
26.649405	26.503092	6720.978333	567.546203
29.130213	27.550978	6992.827222	541.582722
31.588416	26.506428	7599.632778	543.344427
33.725798	28.938642	7788.956111	542.287532
36.569964	26.162602	8475.860000	566.847607
38.642835	25.812151	8832.661667	542.992172
41.830965	24.773515	9228.298889	540.877741
44.558194	25.471347	9716.170556	566.847607
48.089458	25.124009	10123.943889	544.048811
51.804824	25.124009	10548.707778	543.344427
53.678156	24.429199	10975.898889	566.498243
57.713222	24.429199	11543.868889	542.287532
59.852359	24.776626	11650.666667	566.498243
62.410359	23.734212	12371.551667	566.498243
66.672196	25.124009	12711.362778	542.639873
71.364723	23.734212	13223.506667	566.498243
74.661378	23.734212	13711.378333	542.639873
76.887169	22.691400	14497.798333	566.498243
81.064121	21.995970	15723.545556	540.525187
82.192855	22.691400	15374.025556	566.148836
88.316295	21.648188	16679.871111	566.148836
91.087434	20.604579	17223.568889	542.639873
95.479150	19.908619	19155.637778	560.902499
95.828139	19.212482	20279.441667	560.902499
100.691384	18.165675	21779.465000	560.552395
103.734876	17.469186	22798.898333	542.992172
109.591824	16.424121	25277.092222	560.552395
111.529161	16.424121	25624.185000	560.552395
118.310121	15.030086	28832.972778	541.230253
120.921363	15.030086	29913.086667	542.639873
127.815979	14.332804	31811.174444	543.344427
128.806242	14.332804	32323.318333	542.287532
133.738376	12.587264	34177.716111	560.552395
137.354456	12.238382	35772.401111	560.552395
141.804270	11.540486	38527.298333	543.344427
145.446195	11.540486	39274.882778	540.525187
146.797009	3.852096	40646.263333	538.408970
149.168924	10.493314	41976.381111	560.552395
151.768583	9.794981	43000.668889	543.344427
161.802070	5.601311	44789.531667	560.552395
163.452188	6.999899	46947.332222	542.639873
166.942214	3.502122	48139.098333	542.992172
172.207423	3.502122	49313.873889	542.287532
175.865681	3.502122	48855.128889	543.344427
177.455240	6.650317	51886.729444	542.992172
179.916015	3.502122	53498.405000	543.344427
182.247266	3.502122	55391.638333	542.992172
191.345998	3.852096	56981.468889	560.552395
195.541769	3.501688	58590.717222	560.552395
196.923153	3.501688	59437.817778	560.552395
202.037766	3.501688	60695.118889	544.048811
199.214857	3.501688	61078.620000	542.992172
210.887054	3.501688	61729.115556	560.552395
202.227756	3.502122	61083.474444	542.287532
209.709466	3.852096	61733.970000	543.696641
213.135686	3.852096	62139.316111	540.172591
218.970957	3.852096	62952.435556	560.552395
219.554384	3.501688	63787.400000	560.552395
222.664793	3.852096	62850.492222	542.639873
226.132246	4.202026	64343.233889	560.552395
223.690528	4.202026	64238.863333	560.552395
233.528786	4.202026	64884.504444	560.552395
235.048891	4.202026	64476.731111	560.552395
233.093813	4.202026	64624.791667	540.172591
232.800142	4.202026	65217.033889	560.552395
231.924956	4.202026	65535.000000	560.552395
239.516515	4.202026	64843.241667	560.552395
240.894732	4.901755	65535.000000	560.552395
242.805970	5.601311	65535.000000	560.552395
242.735469	8.397789	65535.000000	543.344427
252.131489	7.698931	65535.000000	560.552395
243.122037	7.698931	65535.000000	542.992172
247.648265	4.551912	65535.000000	560.552395
250.752386	8.048382	65535.000000	560.552395
253.683794	8.747152	65535.000000	560.552395
251.697703	6.650317	65535.000000	560.552395
253.124372	7.349437	65535.000000	541.935148
256.438251	8.747152	65535.000000	560.552395
253.780396	5.251555	65535.000000	560.552395
260.066217	9.445748	65535.000000	560.552395
260.996283	9.794981	65535.000000	560.552395
256.466819	5.601311	65535.000000	560.552395
258.769560	4.901755	65535.000000	560.552395
261.706486	5.600616	65535.000000	560.552395
