power (mW)	FWHM	peak value	peak location
2.029848	106.719791	3199.078889	559.501824
2.085321	111.203097	3182.088333	542.992172
2.170367	90.928532	3267.041111	539.467270
2.498480	110.547915	3216.069444	542.992172
2.823635	99.366025	3310.731111	571.734101
3.150936	90.692319	3213.642222	543.344427
3.553647	41.598401	3211.215000	542.287532
4.398190	63.143940	3189.370000	543.344427
5.431752	121.344592	3143.252778	571.385351
6.311691	62.409133	3177.233889	542.639873
7.071804	49.022914	3162.670556	542.639873
8.706222	50.381419	3186.942778	543.344427
10.059218	54.943456	3305.876667	542.287532
11.157548	44.494855	3123.835000	541.582722
12.785581	72.611811	3189.370000	594.653852
14.688674	43.471425	3089.853889	539.467270
16.380624	44.150070	3162.670556	545.457066
18.392883	58.591883	3104.417222	543.696641
20.312305	56.876841	3296.167778	570.338836
22.389111	42.091113	3240.341667	540.172591
24.350990	57.906004	3235.487222	542.992172
26.892903	43.454833	3021.891667	543.344427
26.930127	40.004053	3267.041111	607.073383
31.710704	47.595876	3182.088333	544.048811
35.061504	35.160940	3237.914444	541.935148
36.325111	41.735314	3376.266111	542.639873
38.989520	37.926608	3254.905000	542.287532
42.448268	42.765038	3196.651667	542.992172
45.361288	42.775921	3167.525000	544.753024
47.200482	42.075063	3257.332222	544.753024
51.083445	39.313356	3281.604444	542.639873
53.673750	40.359585	3228.205556	569.989910
56.335411	42.775921	3206.360556	569.640940
59.268362	37.249625	3250.050556	540.525187
64.210891	39.323336	3364.130000	540.877741
67.784759	38.272114	3504.908889	543.344427
70.779456	39.993885	3495.200000	542.992172
73.158863	34.828251	3529.181111	541.230253
78.109302	31.349497	3560.735000	542.992172
81.006746	33.430939	3730.640556	542.639873
85.331412	35.156485	3742.776667	544.048811
85.998740	36.198403	3747.631111	542.992172
94.172842	36.889820	3915.109444	541.230253
93.084702	33.430939	3961.226667	538.056118
100.375863	31.695811	4121.423333	569.989910
101.671973	32.042080	4194.240000	542.287532
107.660179	35.866252	4157.831667	544.048811
111.537462	33.084804	4194.240000	541.230253
116.315088	29.270677	4378.708889	544.400939
117.718289	34.469074	4335.018889	543.344427
122.190069	33.772753	4536.478333	544.400939
125.104421	30.660609	4582.595556	541.582722
128.199916	31.699818	4621.431111	542.992172
132.826669	33.422476	4825.317778	542.287532
137.829955	29.270677	4825.317778	542.639873
140.109856	28.580985	4961.242222	544.400939
144.728657	28.920400	5077.748889	543.344427
149.018166	28.573773	5206.391667	543.344427
153.958565	27.533627	5257.363333	542.287532
155.359029	29.963796	5276.781111	542.992172
161.760871	28.230664	5257.363333	568.593768
165.188010	30.656736	5541.348333	568.244624
168.898714	28.227102	5713.681111	543.696641
172.928814	29.963796	5776.788889	542.287532
173.186685	26.493079	5881.159444	544.400939
180.542155	28.230664	5919.995000	538.761779
184.929860	26.843356	6051.065000	544.400939
185.950601	27.880387	6046.210556	542.992172
191.573321	28.573773	6274.369444	542.639873
196.846062	28.577380	6383.594444	543.344427
198.956742	29.617259	6388.448889	543.344427
201.436900	28.230664	6405.439444	542.639873
203.402177	29.266981	6500.101111	541.582722
205.737818	27.190250	6696.706111	542.992172
206.574333	26.843356	6594.762778	542.992172
210.228841	26.493079	6815.640000	542.287532
211.879774	26.149435	6953.991667	543.344427
218.345924	28.577380	6842.339444	543.344427
220.923475	28.924051	6876.320556	545.105066
228.481344	27.190250	7162.732778	541.582722
226.653390	25.799158	7237.976667	542.992172
230.765180	27.190250	6973.409444	567.895435
228.704396	26.493079	7303.511667	568.244624
233.833259	26.493079	7519.534444	542.992172
238.870504	26.149435	7592.351111	543.696641
233.571884	26.149435	7395.746111	543.344427
240.866816	25.105059	7774.392778	567.895435
242.151739	25.452130	7771.965556	541.582722
245.696096	26.149435	7844.782222	541.582722
245.125499	25.799158	8053.523333	543.344427
246.804417	26.149435	7973.425000	544.400939
246.460432	26.843356	7832.646111	538.408970
248.720776	25.802408	7983.133889	567.895435
253.066118	27.537099	8072.941111	544.400939
255.191000	26.496418	8194.302222	542.992172
253.829336	26.149435	7912.744444	543.344427
255.113375	27.190250	8012.260556	540.877741
253.954786	25.802408	8094.786111	542.639873
256.704981	26.496418	8225.856111	543.696641
253.793318	25.108220	8041.387222	542.992172
256.467517	26.843356	7946.725556	544.048811
253.664516	27.186822	8155.466667	544.753024
254.437932	26.149435	7847.209444	567.895435
257.097884	26.843356	7893.326667	567.895435
258.155004	27.537099	7592.351111	542.639873
