power (mW)	FWHM	peak value	peak location
2.046637	113.117188	3980.644444	542.992172
2.224505	108.477027	3985.498889	540.525187
2.515460	131.068753	3992.780556	542.992172
2.648156	135.789400	3915.109444	544.753024
3.010370	93.653259	4099.578333	542.287532
3.365204	49.299686	3978.217222	543.344427
3.987183	42.872714	3968.508333	542.992172
4.797609	122.686424	4007.343889	542.639873
5.912075	36.172256	4087.442222	542.639873
6.986524	54.585779	3987.926111	543.344427
7.718255	152.669813	4002.489444	543.344427
9.124338	85.233238	4102.005556	539.467270
10.045384	85.045081	3956.372222	541.935148
11.694829	96.244182	4002.489444	543.344427
13.141648	50.394270	4043.752222	542.992172
14.800718	58.644566	4131.132222	567.546203
16.809096	48.647358	4029.188889	542.639873
18.739376	49.348562	4053.461111	542.639873
20.843379	38.987714	3980.644444	542.639873
22.577819	33.802652	4075.306111	543.344427
24.857634	32.412862	4021.907222	540.877741
27.101024	36.571908	3953.945000	542.639873
28.728633	37.254343	3987.926111	544.400939
30.958190	30.329416	4048.606667	542.639873
32.918682	31.369295	3941.808889	566.847607
35.953993	29.635941	4118.996111	542.992172
38.691008	26.860256	4082.587778	543.344427
41.436980	28.598992	4271.911111	544.400939
45.180088	25.818641	4623.858333	542.992172
48.317394	25.124009	4890.852778	541.582722
49.412792	26.516428	4936.970000	544.400939
53.022138	25.474546	5332.607222	566.148836
57.519955	25.474546	5478.240556	542.287532
58.828364	25.127164	5737.953333	544.048811
64.353488	23.740166	6063.201111	566.148836
66.310406	24.435330	6140.872222	543.344427
71.144849	23.392517	6546.218333	542.992172
72.617881	23.392517	6725.832778	542.639873
77.147840	24.090790	6980.691111	565.449891
81.299705	23.047711	7092.343333	539.467270
83.940074	22.697087	7546.233889	565.799385
88.695309	22.349306	7808.373889	539.114546
90.629730	22.699930	7949.152778	541.582722
92.849706	22.699930	8106.922222	565.799385
98.456151	22.004235	8594.793889	565.449891
103.726052	21.308363	9002.567222	565.449891
107.278500	21.656321	9080.238333	543.344427
109.267118	21.308363	9466.166667	542.639873
114.267552	21.308363	9832.677222	542.992172
117.448182	21.308363	10034.136667	544.048811
120.197365	21.308363	10252.586667	542.287532
127.085845	20.960361	10898.227778	565.449891
131.226855	20.612314	11187.067222	542.287532
134.041055	20.264224	11597.267778	542.287532
137.485691	20.264224	11810.863333	539.467270
140.540640	19.567911	12733.207778	565.100353
146.160636	19.219688	13221.079444	542.992172
146.681641	19.219688	13556.036111	543.344427
150.168454	19.219688	13556.036111	543.344427
156.777677	18.871421	14694.403333	543.344427
160.353176	18.172487	15298.781667	540.172591
166.556274	17.475733	15233.246667	565.100353
169.612654	17.127290	16859.485556	565.100353
171.190826	17.127290	17109.489444	565.100353
173.361110	16.430272	18437.180000	543.344427
179.696095	15.733079	19434.768333	542.639873
182.075310	15.382498	19798.851667	541.582722
183.190440	14.336378	21835.291111	559.852058
188.896036	13.987584	22395.979444	542.287532
193.003227	13.987584	22709.091111	559.852058
197.988841	13.987584	22939.677222	542.639873
200.331724	13.987584	23488.229444	543.344427
205.870695	13.638746	24665.432222	559.852058
206.155144	13.638746	24762.521111	539.819951
209.076982	13.289864	26359.633333	543.344427
206.966070	12.940938	26575.656111	541.935148
222.724164	13.289864	27371.785000	559.852058
216.012309	12.591968	28104.806111	541.582722
219.032564	12.940938	28184.904444	543.344427
219.093566	12.591968	28065.970556	543.344427
222.978182	13.987584	27320.813333	541.582722
228.012260	13.638746	27750.431667	559.852058
230.188877	13.638746	28587.823333	542.639873
231.455709	12.940938	28204.322222	559.852058
231.453101	13.638746	28765.010556	559.852058
235.060835	12.591968	30464.066111	559.852058
237.157266	13.289864	30010.175556	539.819951
241.614879	13.289864	30340.277778	541.582722
245.805387	12.940938	31075.726111	559.852058
245.031667	12.591968	32748.082222	542.992172
248.252461	12.591968	33626.736667	559.852058
242.349435	12.591968	33512.657222	559.852058
236.599240	12.591968	31633.987222	542.992172
245.697796	12.591968	33180.127778	544.048811
250.627078	11.543360	35107.342222	539.819951
249.289232	12.940938	32859.734444	559.852058
260.009966	12.591968	33888.876667	559.852058
254.391110	12.940938	33274.789444	544.753024
251.637632	11.893897	34956.854444	542.639873
249.076751	12.940938	31939.817222	542.639873
257.255486	12.940938	33155.855556	544.400939
251.506571	12.242954	35260.257222	544.400939
254.480261	11.194259	36629.210556	544.048811
257.990020	11.543360	36512.703889	559.852058
250.988268	11.543360	36243.282222	559.852058
