power (mW)	FWHM	peak value	peak location
0.424671	120.282136	4111.714444	542.639873
0.363570	119.555207	4034.043333	543.344427
0.453719	114.997608	4138.413889	543.344427
0.791229	105.073810	4135.986667	543.344427
1.259479	122.628462	4014.625556	553.541223
1.719429	133.677666	4087.442222	542.287532
2.489702	103.991202	4019.480000	540.877741
3.454775	134.093600	3907.827778	541.935148
4.293348	107.628268	4089.869444	543.344427
4.756543	63.124761	4089.869444	542.992172
5.829556	57.643938	3978.217222	542.287532
7.289352	62.053432	4026.761667	543.344427
7.639212	53.174447	3997.635000	541.582722
9.817052	50.780794	3813.166111	543.344427
10.828201	50.432087	4118.996111	540.525187
12.523720	47.345053	3997.635000	544.753024
15.093871	46.323426	4568.032222	539.114546
16.483646	44.946563	4929.688333	542.639873
19.211524	45.974763	5565.620556	542.287532
20.455595	44.946563	5837.469444	544.048811
22.344997	42.883360	6303.496111	540.525187
25.181976	43.574987	6871.466111	542.639873
26.957737	44.255119	7004.963333	541.582722
29.610883	41.172966	8017.115000	543.344427
31.279502	41.172966	8274.400556	542.287532
33.188346	41.516249	8917.614444	542.992172
37.095859	41.516249	9971.028889	553.541223
39.309577	42.202678	10335.112222	542.992172
41.644653	42.202678	10335.112222	542.992172
44.837623	38.768703	12077.857778	543.344427
48.063471	38.425054	12813.306111	538.408970
51.142374	38.425054	12813.306111	538.408970
54.707943	38.425054	14391.000556	542.992172
58.092800	37.393835	15121.594444	542.287532
61.094837	37.050004	16255.107222	583.565400
65.693923	37.050004	17512.408333	583.218151
67.623769	37.737620	18070.669444	582.870857
71.985944	37.393835	18922.624444	543.344427
75.056771	36.362205	20070.700556	582.870857
77.435700	36.706127	20696.923889	582.870857
82.432636	36.362205	21905.680556	582.870857
85.269776	36.706127	22568.312222	582.870857
90.833881	36.366900	24179.987778	544.753024
91.122981	35.674224	23500.365556	582.870857
98.607864	36.366900	26454.295000	582.870857
98.136871	35.334724	26818.378333	582.523519
104.807503	34.641912	28568.405556	582.870857
107.188511	34.986062	29180.065556	542.992172
112.079049	34.646380	30131.536667	582.870857
115.394266	34.990575	31148.542778	582.523519
119.600561	35.334724	32510.214444	544.048811
119.956117	34.990575	33738.388889	543.344427
126.612024	34.990575	34471.410000	542.992172
129.058456	34.990575	35553.951111	541.230253
134.869153	34.646380	36442.314444	582.523519
139.760167	34.990575	38978.761667	582.523519
141.707284	34.646380	39221.483889	582.523519
148.296601	34.646380	39221.483889	582.523519
149.318401	34.302139	41240.932778	582.176136
152.168913	34.302139	42245.802778	582.176136
155.851513	33.957854	43369.606667	582.176136
158.305617	34.302139	44983.709444	582.176136
166.565285	34.302139	46209.456667	582.176136
169.006886	34.302139	47406.077222	582.176136
171.919924	33.957854	48469.200556	582.176136
175.356026	33.957854	49260.475000	582.176136
180.835637	33.613522	47765.306111	582.176136
182.481145	34.302139	51221.670556	582.176136
186.680315	34.306560	52202.268333	581.828709
186.741817	34.995086	52394.018889	582.176136
194.982719	34.650846	53211.992778	582.176136
194.179244	34.650846	54008.121667	582.176136
199.537445	34.995086	55246.005000	582.176136
198.310195	34.995086	55525.135556	581.828709
204.314129	34.995086	55928.054444	581.828709
207.121205	35.683431	56690.202222	581.828709
210.598321	35.683431	57374.678889	581.828709
208.826853	34.995086	57466.913333	581.828709
214.745500	35.683431	58214.497778	582.176136
221.630092	35.683431	58214.497778	582.176136
227.769139	36.027535	59182.959444	581.828709
227.258215	36.027535	59224.222222	581.828709
229.292479	36.371594	59702.385000	581.828709
232.722820	37.064357	60532.495000	581.828709
234.800157	36.720344	60974.249444	581.828709
231.870962	36.720344	59923.262222	582.176136
237.763556	37.064357	60780.071667	582.176136
238.250033	37.064357	61277.652222	581.828709
241.258624	37.408325	61729.115556	581.828709
240.735966	37.064357	60204.820000	581.828709
248.816330	37.752247	62350.484444	581.828709
247.834436	37.408325	62212.132778	581.828709
241.500698	37.408325	61457.266667	581.828709
252.886861	38.096124	62634.469444	582.176136
251.852093	38.096124	62403.883333	582.176136
247.849640	38.096124	62517.962778	582.176136
249.816035	38.439955	62530.098889	582.176136
247.208635	38.096124	62382.038333	582.176136
252.762879	38.439955	63224.284444	582.176136
252.453936	38.439955	62886.900556	582.176136
260.762940	38.783740	63372.345000	582.176136
248.567876	38.096124	62542.235000	582.176136
250.838394	38.439955	62998.552778	582.176136
256.156222	38.439955	62986.416667	582.176136
250.876857	38.439955	63022.825000	581.828709
