power (mW)	FWHM	peak value	peak location
1.762644	47.310857	3162.670556	542.287532
1.618644	131.329741	3160.243333	540.525187
1.561885	129.839245	3167.525000	542.992172
1.729828	138.041551	3305.876667	543.344427
2.502391	64.919936	3118.980556	542.639873
2.882734	140.478866	3148.107222	542.992172
3.679187	106.211089	3131.116667	543.344427
4.535570	90.797435	3133.543889	542.287532
5.318328	77.391338	3157.816111	543.344427
6.344263	65.474598	3184.515556	543.344427
7.598478	57.970125	3189.370000	542.287532
8.758543	51.820428	3060.727222	539.114546
10.142304	55.238777	3182.088333	542.287532
11.219757	53.516213	3424.810556	542.287532
12.865610	51.129544	3922.391111	543.344427
14.316250	50.438659	4225.793889	542.992172
16.479155	51.116219	4866.580556	543.344427
18.027439	47.008663	5070.467222	543.344427
20.315634	47.351212	5592.320000	548.271522
22.441775	47.008663	6109.318333	552.136916
24.440384	44.946563	6553.500000	538.408970
26.547094	45.289342	7126.324444	541.935148
29.692103	46.666067	7725.848333	539.467270
32.071097	45.295226	8114.203889	542.639873
33.403776	44.266613	8500.132222	543.344427
36.617700	43.574987	9157.909444	543.344427
39.084110	41.510868	9903.066667	542.992172
41.935896	43.917950	10437.055556	542.639873
43.398008	42.888924	10866.673889	584.953954
47.884131	40.829637	11587.558889	542.992172
49.591746	43.231979	12019.604444	584.953954
52.590232	41.859486	12383.687778	584.606882
57.059497	43.231979	13291.468889	584.953954
60.501089	40.481018	13893.420000	545.457066
62.508596	41.510868	14495.371111	542.992172
65.221300	40.824347	14997.806111	584.259766
68.967941	41.172966	15750.245000	584.259766
72.932092	39.794223	16492.975000	543.344427
77.335146	40.481018	17228.423333	545.105066
79.989206	39.107245	17017.255000	543.344427
84.039819	39.450757	18553.686667	584.606882
87.899918	40.137643	18978.450556	584.259766
89.821889	39.450757	19478.458333	584.259766
95.096137	40.824347	20463.910556	584.259766
97.998639	40.137643	21264.893889	584.259766
101.992057	39.107245	21687.230556	584.606882
105.206110	39.450757	22612.002222	584.259766
110.371120	40.137643	23194.535556	542.639873
113.386987	39.450757	23905.711667	543.344427
115.592463	40.137643	24672.713889	584.259766
117.891456	37.732741	24900.872778	544.048811
123.188307	39.107245	25951.860000	584.259766
130.203250	39.107245	26675.172222	543.344427
134.235399	39.107245	27371.785000	584.606882
135.827076	38.420084	28114.515000	584.606882
139.792694	38.763687	28998.023889	543.344427
143.737916	38.420084	29481.041111	584.606882
145.627104	38.763687	29811.143333	584.259766
149.174465	38.420084	30000.466667	584.259766
154.003024	38.763687	30968.928333	584.259766
160.860282	38.076436	30374.258889	584.259766
161.486608	37.732741	32762.645556	584.259766
164.826586	38.076436	33388.868889	584.606882
169.128774	38.763687	34051.500556	584.259766
174.405437	38.763687	34726.268333	583.912605
175.303570	38.763687	35223.848889	584.259766
181.839196	38.763687	35910.752778	584.259766
185.637293	38.420084	36786.980000	584.259766
190.401450	38.763687	37869.521111	584.259766
187.583629	38.420084	37636.507778	543.344427
191.927480	38.420084	38214.186667	584.606882
196.032389	38.420084	38675.358889	584.259766
201.270101	37.732741	39265.173889	584.259766
204.146560	37.732741	39801.590000	584.259766
209.241640	37.732741	40401.113889	584.259766
213.946937	38.076436	41694.823333	584.259766
210.877205	37.389002	41680.260000	583.912605
214.385638	37.732741	42119.587222	583.912605
221.537961	38.763687	42617.167778	584.259766
218.327180	37.389002	42592.895556	584.259766
228.699669	38.763687	43753.107778	584.259766
224.017329	38.076436	43777.380000	584.606882
228.127557	37.389002	43966.703333	583.912605
236.209016	37.732741	43180.283333	584.259766
235.352829	37.732741	45158.469444	584.259766
235.656160	38.076436	44772.541111	584.259766
232.822145	38.076436	45112.352222	583.912605
239.352090	38.081360	46437.615556	584.606882
241.861935	37.732741	46478.878333	583.912605
247.339625	37.737620	47932.784444	584.259766
244.983472	38.081360	47760.451667	583.912605
246.524461	38.081360	47969.192778	584.259766
245.951907	38.081360	47308.988333	584.259766
249.960414	38.081360	48396.383889	584.259766
242.097909	38.081360	48044.436667	583.912605
243.514800	37.393835	48153.661667	583.912605
248.823361	38.425054	48306.576667	584.259766
252.010254	38.081360	49335.718889	583.912605
252.489582	37.737620	49313.873889	583.912605
252.282945	37.737620	49690.093333	584.259766
255.175518	38.081360	49692.520556	583.912605
258.216821	37.393835	50085.730556	583.912605
260.001467	37.737620	50010.486667	584.259766
257.682940	38.081360	48413.374444	583.912605
260.668876	38.081360	50134.275000	583.912605
