power (mW)	FWHM	peak value	peak location
1.886754	88.146813	4075.306111	542.287532
2.174756	122.907372	3963.653889	542.992172
2.249354	159.371569	4080.160556	542.639873
2.451926	134.083307	4128.705000	543.344427
2.691703	127.512180	4118.996111	542.992172
3.136391	30.199449	4041.325000	543.344427
3.703037	55.537036	4111.714444	543.344427
4.427528	68.745179	4116.568889	543.344427
5.456891	138.691001	4043.752222	542.992172
6.332631	75.689012	4123.850556	543.344427
7.503753	49.379992	4150.550000	539.114546
8.368134	48.352190	3985.498889	570.687718
9.616865	56.219341	4060.742778	541.230253
11.204822	37.585825	4080.160556	540.525187
13.135301	37.249625	4053.461111	543.344427
14.919392	32.742765	3975.790000	544.753024
16.265572	34.819438	4104.432778	542.992172
18.337696	32.738625	4553.468889	543.344427
19.858743	32.058279	4837.453889	543.344427
21.623370	30.317943	5143.283889	542.992172
23.987329	27.890935	5529.212222	542.992172
26.760064	27.193677	5735.526111	540.172591
28.482205	27.193677	6245.242778	544.048811
30.528012	29.274371	6417.575556	545.105066
33.440246	26.152728	6970.982222	567.546203
36.719345	25.805657	7145.742222	542.287532
38.255975	25.805657	7393.318889	542.639873
40.854825	25.458540	7665.167778	542.639873
44.401438	26.846739	8053.523333	567.196927
47.297621	25.458540	8446.733333	544.400939
50.286774	25.111380	8572.948889	542.287532
53.442194	24.764175	8920.041667	540.877741
55.265718	24.764175	8929.750556	540.525187
58.941450	24.764175	9393.350000	543.344427
62.807876	24.416925	9604.518333	542.992172
67.104446	25.111380	9762.287778	542.287532
71.189692	24.416925	10305.985556	541.582722
71.159791	23.722293	10458.900556	543.344427
76.198211	24.416925	10691.913889	545.105066
77.680749	24.416925	10740.458333	567.196927
82.933292	23.374910	11276.874444	542.992172
86.127210	23.374910	10873.955556	543.344427
91.439131	22.680012	11798.727222	542.992172
94.216788	23.027483	11898.243333	542.992172
98.715152	23.374910	12320.580000	542.287532
98.582462	23.374910	12286.598889	542.287532
103.877915	23.027483	12582.720000	542.992172
109.463313	22.680012	12995.347778	542.287532
111.648382	23.027483	12997.775000	541.935148
118.176243	22.680012	13602.153333	566.847607
120.123976	22.680012	13497.782778	542.287532
123.862166	22.680012	13733.223333	566.847607
127.443089	22.680012	13861.866111	546.512808
130.666269	22.680012	13956.527778	543.344427
133.134925	22.332496	14366.728333	566.847607
136.880716	22.332496	14473.526111	540.525187
142.045959	22.332496	14762.365556	566.498243
146.750791	21.984936	15097.322222	543.344427
147.087069	22.332496	14898.290000	542.992172
152.992177	22.332496	15085.186111	540.877741
159.799191	21.289684	15876.460556	566.148836
160.887873	22.332496	15609.466111	544.400939
160.568231	22.332496	15563.348889	566.498243
168.619084	21.984936	16218.698889	566.148836
172.273524	21.637332	15534.222222	566.148836
176.358119	21.637332	16534.237778	539.114546
175.802701	21.984936	16551.228333	543.344427
181.737751	21.637332	16548.801111	542.287532
185.653929	21.637332	16774.532778	543.344427
189.782260	22.332496	17099.780556	543.344427
190.571708	21.984936	17264.831667	541.582722
188.147789	21.637332	17262.404444	539.819951
195.954903	21.984936	17352.211667	565.799385
201.845961	21.637332	17509.981111	543.696641
202.368154	21.289684	17893.482222	541.582722
211.604405	20.941991	18296.401111	541.582722
207.067630	21.637332	17866.782778	543.696641
214.336975	21.637332	18371.645000	565.449891
215.978409	20.941991	18395.917222	542.639873
213.897601	21.289684	18162.903889	565.449891
218.009506	21.289684	18485.724444	543.344427
226.813974	20.243933	19381.369444	539.114546
225.881744	20.594254	19437.195556	565.449891
227.774586	20.594254	19609.528333	542.992172
228.156569	20.941991	19029.422222	565.449891
228.030677	20.941991	19189.618889	543.344427
234.611681	20.941991	19611.955556	543.344427
230.015581	20.941991	18752.718889	565.449891
231.278012	20.941991	19869.241111	542.287532
233.271601	21.289684	19310.980000	565.449891
236.017280	21.289684	19226.027222	544.753024
241.202767	20.941991	20012.447222	565.799385
238.159717	21.289684	19658.072778	565.799385
241.259112	20.594254	20128.953889	543.344427
241.816789	20.594254	20211.479444	565.449891
245.561171	20.594254	20371.676111	565.449891
244.973832	20.246473	20738.186667	543.344427
248.657028	20.246473	20682.360556	543.344427
252.416009	20.594254	20869.256667	543.344427
252.747839	20.246473	20798.867222	565.100353
251.145335	20.246473	21109.551667	565.100353
248.941476	20.594254	20643.525000	542.639873
257.464032	20.594254	20854.693333	544.400939
247.653550	20.941991	20262.451111	544.048811
247.748243	20.594254	20459.056111	565.449891
