power (mW)	FWHM	peak value	peak location
-0.446197	126.640662	4097.151111	543.344427
-0.384715	111.294765	4145.695556	544.753024
0.012562	79.803159	4051.033889	538.056118
0.205976	103.717091	4075.306111	543.344427
0.431874	143.327503	4177.249444	542.639873
0.611600	143.327503	4177.249444	542.639873
2.051172	74.186173	4177.249444	543.344427
2.870808	84.523275	4165.113333	543.344427
3.601299	63.861363	4118.996111	543.344427
4.296211	61.396700	4118.996111	548.271522
5.511408	44.506185	4036.470556	540.877741
6.755708	35.861712	4046.179444	569.291927
8.033587	38.617576	4082.587778	543.344427
9.475304	31.010973	4089.869444	542.287532
11.393515	29.274371	4645.703333	539.819951
12.982002	28.577380	5140.856667	544.048811
14.201739	31.007057	5439.405000	567.895435
16.454204	27.540571	5922.422222	540.877741
18.204107	26.499756	6271.942222	542.992172
20.605401	25.805657	6856.902778	541.582722
22.806572	26.846739	7172.441667	543.344427
24.301808	25.458540	7485.553333	567.895435
27.131586	25.805657	7878.763333	542.639873
29.553781	24.413854	8347.217222	541.230253
32.571369	24.413854	8347.217222	541.230253
35.088151	25.111380	8876.351667	542.287532
37.711422	25.111380	9315.678889	567.196927
40.790869	24.416925	9507.429444	567.196927
43.359981	24.416925	9781.705556	545.809023
46.248847	24.764175	9711.316111	541.935148
48.419810	23.719311	10531.717222	543.344427
51.653845	23.722293	10735.603889	567.196927
56.051993	23.722293	11123.959444	543.344427
59.513480	23.371972	11551.150556	542.992172
63.184119	24.069631	11708.920000	542.639873
63.889997	23.374910	12046.303889	542.639873
69.330394	22.677163	12667.672778	540.877741
72.037644	23.374910	12907.967778	542.639873
74.517296	23.024590	12927.385556	542.287532
79.880108	22.677163	13306.032222	543.344427
81.680610	23.027483	13441.956667	566.847607
86.792326	21.982176	14068.180000	566.847607
89.975237	22.680012	14206.531667	543.344427
92.563854	22.329691	14398.282222	566.847607
98.094658	21.982176	14786.637778	542.287532
102.292968	21.982176	15087.613333	566.847607
102.315785	21.982176	15162.857222	566.847607
108.295318	22.332496	15473.541667	542.639873
116.704113	22.332496	15473.541667	542.639873
118.977763	21.982176	15905.587222	542.287532
122.674683	22.332496	15408.006667	543.344427
126.770627	22.332496	16315.787778	543.344427
130.062550	22.332496	16483.266111	543.344427
135.225768	21.634616	16878.903333	542.639873
135.021296	21.982176	17000.264444	566.847607
140.166749	21.287011	17502.699444	566.847607
143.015582	21.634616	17607.070000	542.992172
149.997475	21.634616	17908.045556	566.498243
153.991639	20.939363	18109.505000	542.992172
156.023493	20.939363	18170.185556	566.498243
156.410562	21.634616	18391.062778	542.287532
166.542525	20.939363	18582.813333	541.230253
167.743291	20.939363	19048.840000	566.498243
171.268405	20.939363	19058.548889	566.847607
173.848274	20.939363	19354.670000	543.344427
178.430695	21.287011	19541.566111	542.287532
182.358361	21.634616	19422.632222	543.344427
185.233669	21.637332	19412.923333	566.498243
190.109923	20.939363	19927.494444	566.498243
192.794821	20.939363	19951.766667	542.287532
193.656236	21.634616	20063.418889	539.819951
198.933925	20.591670	20044.001111	541.935148
202.490250	20.591670	20332.840556	543.344427
203.186483	20.939363	19233.308889	539.819951
207.493431	20.939363	20558.572222	566.498243
211.719516	21.289684	20849.838889	543.344427
218.822830	20.939363	21141.105556	566.498243
216.213824	20.591670	21325.574444	542.287532
219.142390	20.591670	21286.738889	544.400939
222.959486	20.591670	21369.264444	566.498243
230.165385	20.591670	21505.188889	542.992172
228.901021	20.591670	21303.729444	544.048811
237.115194	20.591670	21531.888333	539.467270
233.896729	20.939363	21633.831667	543.696641
237.644138	20.591670	21978.497222	542.639873
239.393814	20.591670	21939.661667	545.105066
235.766569	20.939363	21403.245556	543.344427
242.836610	20.591670	21949.370556	541.582722
243.169978	20.591670	22204.228889	566.498243
242.581289	20.941991	22459.087222	540.525187
247.255410	20.243933	22546.467222	566.498243
249.374425	20.591670	22631.420000	542.992172
253.432360	20.243933	22612.002222	566.498243
252.364226	20.591670	22483.359444	566.498243
255.707302	20.591670	22743.072222	566.498243
257.211133	20.594254	22565.885000	566.498243
258.927490	20.591670	21614.413889	542.287532
261.908025	20.243933	23019.775556	543.344427
262.250076	20.243933	22874.142222	542.639873
261.498382	20.243933	23012.493889	566.498243
254.720450	20.243933	22995.503333	542.639873
257.148896	20.243933	23352.305000	566.498243
260.769715	20.243933	23102.301111	542.992172
262.280344	20.243933	22988.221667	566.498243
271.508005	20.243933	23369.295556	566.498243
