power (mW)	FWHM	peak value	peak location
76.431490	8.740621	3279.177222	564.051477
75.807201	8.740621	3279.177222	564.051477
76.081761	8.390474	3247.623333	564.401146
76.439301	8.740621	3536.462778	564.051477
75.558235	8.740621	2953.929444	564.401146
75.651705	9.089679	2987.910556	564.401146
75.348548	9.089679	2956.356667	564.401146
75.786607	8.740621	3534.035556	564.051477
75.613381	8.740621	3264.613889	564.051477
76.240872	9.088545	2798.587222	564.401146
76.191482	8.740621	3213.642222	564.051477
76.959969	9.089679	2915.093889	564.051477
77.654846	9.438692	2781.596667	564.401146
77.794859	8.739531	3201.506111	564.401146
78.085641	8.739531	2832.568333	564.750771
77.639188	8.739531	3109.271667	564.401146
77.209150	8.739531	3109.271667	564.401146
78.855676	8.739531	3143.252778	564.401146
78.130851	9.437515	2473.339444	564.750771
76.690392	8.740621	3390.829444	564.051477
77.675830	9.438692	2682.080556	564.401146
77.066809	9.437515	2640.817778	564.750771
77.148294	9.437515	2662.662778	564.750771
76.339301	9.088545	2708.780000	564.750771
76.491782	9.786441	2529.165556	564.750771
77.257014	9.088545	2412.658889	564.750771
78.280031	9.786441	2347.123889	564.750771
77.728106	9.786441	2347.123889	564.750771
77.754218	9.088545	2376.250556	564.750771
78.228716	9.088545	2677.226111	564.750771
77.067944	9.088545	2677.226111	564.750771
76.312054	10.832955	2201.490556	565.100353
75.879897	11.181706	2104.401667	565.449891
76.345244	9.087411	2436.931111	565.100353
77.485212	10.135323	2199.063333	565.100353
76.633703	9.437515	2373.823333	564.750771
77.450305	9.786441	2347.123889	564.750771
78.739482	9.437515	2534.020000	564.750771
76.532975	9.786441	2169.936667	565.100353
76.000875	9.785219	2084.983889	565.100353
76.944893	11.181706	2356.832778	564.750771
77.177468	9.088545	2279.161667	564.750771
77.377458	10.832955	2223.335556	564.750771
77.044690	10.482852	1844.688889	565.449891
78.069815	10.135323	2118.965000	565.100353
75.395277	9.087411	2410.231667	565.100353
76.210534	9.782774	2099.547222	565.100353
76.705840	11.879075	1660.220000	565.449891
76.697633	9.786441	2118.965000	565.100353
77.077292	10.484161	1992.749444	565.100353
76.878135	9.086277	2099.547222	565.100353
76.865527	9.086277	2099.547222	565.100353
75.309043	9.436337	2191.781667	565.100353
77.757070	10.484161	1953.913889	565.100353
78.057213	9.435159	1944.205000	565.449891
