power (mW)	FWHM	peak value	peak location
34.544151	4.542291	5725.817222	566.148836
34.682869	5.241760	4611.722222	566.148836
34.618744	4.542291	5463.677222	566.498243
34.751726	4.542291	5463.677222	566.498243
34.692787	4.892004	5839.896667	566.148836
34.545478	4.892004	5839.896667	566.148836
35.309422	4.891392	8478.287222	566.498243
35.083320	4.892004	5555.911667	566.148836
34.757261	4.892004	5555.911667	566.148836
35.195315	4.892004	5917.567778	566.148836
35.002420	4.892004	5009.786667	566.148836
34.480230	5.241105	6021.938333	566.148836
34.072704	4.542859	7230.695000	566.148836
34.121354	4.892004	6279.223889	566.148836
35.642542	5.241105	5818.051667	566.498243
35.570023	4.542291	6757.386667	566.148836
35.295667	4.892004	6922.437778	566.148836
34.650604	4.892004	6922.437778	566.148836
34.663215	5.241760	5655.427778	565.799385
35.206572	5.241760	5405.423889	566.148836
35.151432	4.892004	5983.102778	566.148836
35.519464	4.542291	6123.881667	566.148836
35.701878	5.241105	5936.985556	566.148836
35.258278	4.542291	6781.658889	566.498243
35.199898	4.193146	10305.985556	566.148836
35.480171	4.542291	7165.160000	566.148836
35.392781	4.542291	7165.160000	566.148836
35.795363	4.192622	10534.144444	566.498243
35.303493	4.542291	8026.823889	566.148836
34.828624	4.892004	5859.314444	566.148836
34.298794	4.892004	5859.314444	566.148836
34.329886	4.542291	9951.611111	566.498243
34.102274	5.590861	4480.652222	566.148836
34.410981	4.193146	8966.158889	566.498243
34.667586	4.892004	8682.173889	566.148836
34.182612	4.542291	6769.522778	566.498243
33.979595	4.892004	7055.935000	566.148836
34.424532	4.542291	7560.797222	566.498243
34.941966	4.542291	4526.769444	566.148836
35.019024	4.892004	3939.381667	566.148836
34.978587	4.892004	5538.921111	566.148836
34.793888	4.892004	5007.359444	566.148836
34.449514	5.241105	6752.532222	566.148836
35.177774	4.892004	6038.928889	566.148836
34.950717	4.892004	5223.382222	566.148836
34.652324	5.241105	4737.937778	566.148836
34.268262	4.192622	6296.214444	566.498243
34.565132	4.892004	5854.460000	566.148836
34.452564	5.241105	6531.655000	566.148836
35.380968	4.542291	5424.841667	566.148836
35.274305	5.590861	3699.086667	566.148836
35.228516	4.891392	4953.960556	566.498243
34.658812	5.590861	4497.642778	566.148836
35.939211	4.542291	6296.214444	566.148836
34.533083	4.891392	4235.502778	566.498243
35.641008	4.891392	4235.502778	566.498243
35.154680	4.542291	4779.200556	566.148836
35.912127	5.241105	4507.351667	566.498243
35.894199	4.892004	4662.693889	566.148836
36.761913	5.241105	4587.450000	566.148836
35.902578	4.891392	4257.347778	566.498243
35.972975	4.542291	6218.543333	566.148836
35.654166	4.542291	4762.210000	566.498243
35.519473	5.241105	3990.353333	566.148836
36.389680	4.192622	7126.324444	566.498243
36.022588	4.542291	6247.670000	566.498243
35.552483	4.542291	5538.921111	566.498243
36.251367	4.892004	7153.023889	566.148836
35.619820	4.542291	5531.639444	566.498243
