power (mW)	FWHM	peak value	peak location
39.460466	7.693187	8218.574444	564.051477
39.554320	8.043377	8085.077222	563.701765
39.825821	8.392566	7575.360556	564.051477
38.833715	8.042375	6145.726667	564.051477
38.611065	8.393611	7201.568333	563.701765
38.593126	7.693187	9123.928333	564.051477
38.512980	7.343040	7665.167778	564.051477
38.991493	8.392566	6686.997222	564.051477
40.020631	7.693187	6941.855556	564.401146
39.786717	8.742800	6568.063333	564.051477
38.896096	8.392566	6597.190000	564.051477
38.664279	7.693187	8172.457222	564.051477
38.735836	7.343954	8898.196667	564.051477
38.865584	6.992936	9704.034444	564.401146
38.879309	8.042375	7580.215000	564.051477
39.266408	8.042375	7580.215000	564.051477
39.406275	7.692228	6980.691111	564.401146
39.402276	8.042375	6878.747778	564.401146
39.336065	8.042375	6818.067222	564.401146
38.962308	7.343040	8165.175556	564.051477
39.214914	8.043377	7878.763333	564.051477
39.372322	8.042375	6849.621111	564.051477
39.698760	8.042375	6665.152222	564.051477
39.781755	8.042375	6932.146667	564.051477
40.231069	7.692228	7386.037222	564.401146
39.810565	8.042375	6636.025556	564.401146
40.218674	9.091945	5665.136667	564.051477
40.339451	8.742800	8252.555556	564.051477
39.769927	8.042375	7468.562778	564.401146
39.112076	8.742800	7453.999444	564.051477
39.540962	8.391520	6254.951667	564.401146
39.732337	8.391520	7082.634444	564.401146
39.888977	7.692228	8014.687778	564.401146
40.012243	9.091945	7939.443889	564.051477
39.917216	8.391520	6898.165556	564.401146
40.004222	8.042375	7315.647778	564.401146
40.516313	8.041373	6725.832778	564.401146
40.052304	7.692228	8293.818333	564.401146
39.841281	8.042375	7429.727222	564.401146
39.395786	8.041373	7313.220556	564.401146
39.559480	7.342124	7470.990000	564.750771
38.708359	7.342124	8308.381667	564.401146
38.881216	7.341209	7145.742222	564.750771
38.832764	7.342124	7788.956111	564.750771
39.189344	7.692228	7691.867222	564.401146
39.075653	7.691269	7065.643889	564.750771
38.742897	6.992064	7842.355000	564.750771
38.916335	8.041373	6878.747778	564.401146
39.409142	8.042375	7296.230000	564.401146
39.252883	7.342124	7992.842778	564.401146
39.140330	7.342124	7463.708333	564.750771
38.951807	6.992064	7242.831111	564.750771
39.307834	6.992064	8179.738889	564.750771
