power (mW)	FWHM	peak value	peak location
68.156084	8.037360	2089.838333	565.449891
69.275661	8.037360	2089.838333	565.449891
69.381145	7.689350	2555.865000	565.449891
68.030920	7.689350	2555.865000	565.449891
68.614754	8.038364	2126.246667	565.449891
66.751888	8.038364	2126.246667	565.449891
67.019346	8.386286	1849.543333	565.799385
67.240262	8.385238	1919.932778	565.799385
67.399029	8.385238	1919.932778	565.799385
67.758077	8.386286	1951.486667	565.799385
67.451864	8.386286	1735.463889	565.799385
67.836337	8.735168	2002.458333	565.799385
68.920961	8.737351	2182.072778	565.449891
69.578068	9.432801	2002.458333	565.799385
70.201169	8.735168	1953.913889	565.799385
69.028960	8.386286	1723.327778	566.148836
68.375882	8.386286	1723.327778	566.148836
68.805175	7.338461	1900.515000	566.148836
68.924780	8.037360	2041.293889	565.799385
69.368735	8.036356	1873.815556	566.148836
68.019674	8.036356	1660.220000	566.148836
68.494183	8.036356	1660.220000	566.148836
68.390771	9.780328	1677.210556	566.148836
67.946210	8.385238	1781.581111	566.148836
67.932100	8.735168	1720.900556	565.799385
68.208965	8.384190	1592.257778	566.148836
68.974763	8.386286	1851.970556	566.148836
67.864760	8.036356	1665.074444	565.799385
67.130022	8.037360	1640.802222	566.148836
67.083631	9.781551	1541.286111	565.799385
67.884597	8.735168	1822.843889	565.799385
67.807716	8.735168	1720.900556	566.148836
67.973108	9.432801	1597.112222	566.148836
67.002373	8.732984	1599.539444	566.148836
66.826091	8.035352	1500.023333	566.498243
67.428593	9.432801	1550.995000	566.148836
67.954586	9.780328	1640.802222	566.148836
68.434252	8.734077	1735.463889	565.799385
69.004361	8.036356	1798.571667	566.148836
69.810241	8.735168	1762.163333	566.148836
68.777113	8.035352	1538.858889	566.148836
68.592624	7.686470	1509.732222	566.148836
68.415364	8.385238	1543.713333	566.498243
69.553620	8.735168	1597.112222	566.148836
68.845402	8.734077	1691.773889	566.148836
69.709704	8.386286	1645.656667	566.148836
69.476751	7.687430	2276.734444	565.799385
69.808168	8.384190	1543.713333	566.498243
69.742714	7.686470	1733.036667	566.498243
70.254039	8.732984	1485.460000	566.148836
71.009743	9.431621	1468.469444	566.148836
70.997927	8.385238	1553.422222	566.148836
68.695238	9.430442	1480.605556	566.148836
69.022283	8.386286	1900.515000	565.799385
67.838427	7.686470	1657.792778	566.498243
67.358965	9.081735	1541.286111	566.498243
