power (mW)	FWHM	peak value	peak location
26.250436	32.082535	1961.195556	540.172591
26.738871	22.001481	2269.452778	539.467270
26.930048	17.819680	2182.072778	564.401146
26.674950	21.653611	2155.373333	542.639873
26.606265	92.068158	1490.314444	539.467270
26.721883	17.471369	2305.861111	539.467270
27.099831	24.093808	1956.341111	540.877741
27.300746	24.093808	1956.341111	540.877741
26.937664	24.432265	2007.312778	540.172591
27.150393	24.432265	2007.312778	540.172591
27.063396	20.261691	2186.927222	542.287532
26.926232	19.560573	2199.063333	564.051477
27.020270	19.560573	2199.063333	564.051477
26.952941	19.560573	2174.791111	543.344427
26.744203	20.251549	2167.509444	546.160937
26.579169	23.389585	2034.012222	543.696641
26.230595	34.863441	1764.590556	541.230253
26.359383	31.739812	1946.632222	542.992172
26.453441	19.214885	2160.227778	540.172591
26.055827	25.136621	1873.815556	542.992172
26.030649	25.133469	1893.233333	539.819951
25.904345	21.656321	2104.401667	543.696641
25.807612	24.782846	1992.749444	539.819951
26.089029	34.859048	1873.815556	543.696641
25.880872	21.656321	2021.876111	546.864636
26.178893	18.516169	2208.772222	543.696641
26.175272	22.694244	2036.439444	541.582722
26.006039	23.410088	1941.777778	542.992172
25.981801	25.133469	1924.787222	564.750771
26.401356	118.391031	1694.201111	545.809023
26.123747	24.087770	1987.895000	539.467270
26.168968	22.352104	2043.721111	540.172591
26.064605	29.639673	1978.186111	540.877741
25.560916	22.004235	2048.575556	539.467270
25.756855	23.033268	2053.430000	544.048811
26.105827	18.513854	2237.898889	564.401146
26.384953	25.828368	1907.796667	542.639873
26.371022	19.908619	2216.053889	544.400939
26.058874	28.606186	1995.176667	544.048811
26.222962	31.408789	1847.116111	541.582722
26.160773	25.136621	1963.622778	546.512808
26.115167	21.993213	2140.810000	538.761779
25.919982	27.221050	1939.350556	539.819951
25.756098	23.740166	1963.622778	564.750771
25.360586	21.648188	2019.448889	541.582722
25.278935	26.175750	1927.214444	545.457066
25.288650	24.087770	2092.265556	539.114546
25.244962	24.087770	2092.265556	539.114546
25.243242	30.001573	1851.970556	538.761779
25.074973	24.096825	1898.087778	542.287532
25.001130	71.416336	1779.153889	546.864636
25.276636	27.217632	1970.904444	545.457066
25.421448	17.819680	2228.190000	539.114546
