power (mW)	FWHM	peak value	peak location
0.776183	48.600881	827.682778	543.696641
0.791099	89.426407	859.236667	541.230253
0.800257	137.872070	774.283889	545.809023
1.077356	88.550346	859.236667	541.230253
1.121411	126.924046	808.265000	542.639873
1.291875	41.458500	803.410556	541.230253
1.685668	60.860949	810.692222	539.819951
1.830949	117.603900	825.255556	545.105066
2.422818	116.058588	733.021111	544.400939
2.638447	102.578430	815.546667	538.761779
2.728224	106.680592	798.556111	539.819951
2.891332	102.238573	849.527778	542.639873
3.828154	163.658759	905.353889	538.761779
4.059117	78.605821	793.701667	538.761779
4.253446	80.284582	851.955000	542.287532
5.624509	108.051622	939.335000	545.457066
6.226440	105.309181	1050.987222	540.877741
6.771686	96.039144	1092.250000	540.877741
7.900409	41.241879	1145.648889	541.582722
8.245570	21.596487	1220.892778	539.114546
8.534047	50.381419	1240.310556	542.992172
9.998213	46.895105	1296.136667	539.819951
10.362448	16.393270	1415.070556	547.919865
10.879394	15.340138	1490.314444	547.216422
11.829674	12.203167	1645.656667	541.935148
13.423582	13.246643	1703.910000	543.696641
13.949406	11.855253	1740.318333	545.809023
14.598650	10.809886	1771.872222	541.582722
15.828109	10.460522	1927.214444	546.512808
16.903344	11.505846	1922.360000	543.344427
17.868541	10.461839	2155.373333	539.114546
18.559822	10.111202	2269.452778	540.877741
19.853399	9.765614	2473.339444	540.525187
21.425656	9.065790	2660.235556	544.753024
22.719299	8.369476	2936.938889	553.541223
23.194256	8.718752	2859.267778	539.114546
25.512763	9.065790	2878.685556	547.568165
26.205021	9.066931	3267.041111	546.160937
27.277401	8.020244	3512.190556	548.623136
29.153967	8.369476	3643.260556	541.582722
31.194730	8.717655	3657.823889	545.105066
32.868638	8.020244	3905.400556	572.082808
33.536409	8.368423	3832.583889	540.525187
35.722406	9.415066	3915.109444	543.696641
36.718815	8.368423	4121.423333	547.568165
37.513064	7.670089	4419.971667	549.326236
38.335121	8.368423	4517.060556	546.160937
40.938367	8.019234	4519.487778	542.992172
42.344604	8.368423	4769.491667	542.639873
43.123245	8.019234	5070.467222	539.467270
44.412924	7.321911	5097.166667	549.326236
46.531543	7.321911	5449.113889	541.230253
46.468759	8.019234	5235.518333	547.919865
47.137575	7.670089	5267.072222	539.819951
49.138789	7.670089	5619.019444	545.105066
50.080403	8.019234	5546.202778	539.819951
52.499221	7.670089	5924.849444	542.639873
52.699320	8.019234	5621.446667	550.380563
55.380864	8.367369	5446.686667	539.467270
57.280394	7.670089	6478.256111	540.172591
58.027666	8.019234	6279.223889	545.457066
59.036017	8.367369	5905.431667	540.525187
60.161190	7.669123	6286.505556	539.467270
60.775199	8.019234	6269.515000	538.408970
62.842417	7.320988	6837.485000	542.992172
63.734980	8.019234	6568.063333	542.992172
66.021758	7.320988	6771.950000	538.761779
66.922313	8.018224	6927.292222	544.048811
68.884825	8.018224	7002.536111	543.696641
68.260018	8.018224	6813.212778	544.400939
69.746726	8.018224	6822.921667	572.780089
71.487703	8.367369	6580.199444	546.160937
73.905552	8.367369	7201.568333	540.172591
73.522033	7.669123	7631.186667	553.892193
75.184545	7.669123	7386.037222	544.048811
76.575925	8.716557	6985.545556	538.761779
78.901775	8.366314	7383.610000	548.623136
79.533128	7.669123	7643.322778	541.935148
80.872437	8.367369	7102.052222	572.780089
83.086851	8.018224	7679.731111	545.457066
83.059106	8.366314	7473.417222	541.230253
83.436233	8.018224	7478.271667	553.541223
85.224135	7.669123	8177.311667	539.467270
85.234278	8.018224	7305.938889	540.877741
86.666440	8.017213	7650.604444	543.344427
88.518079	8.367369	7526.816111	540.172591
88.042614	8.018224	7888.472222	539.114546
88.831275	7.320065	8051.096111	540.525187
91.292861	8.017213	7793.810556	549.326236
89.417305	7.669123	7861.772778	546.864636
89.593968	7.669123	7742.838889	573.128664
89.803702	8.018224	7427.300000	543.344427
90.105205	7.669123	7592.351111	546.864636
90.709058	8.017213	7708.857778	538.761779
90.673718	8.017213	7602.060000	541.935148
90.733661	7.320065	7920.026111	546.160937
91.776455	7.320065	8014.687778	543.344427
91.224223	8.367369	7060.789444	546.512808
91.974150	7.320065	7570.506111	542.992172
93.205256	9.064648	6895.738333	546.864636
