power (mW)	FWHM	peak value	peak location
0.537728	56.006464	932.053333	543.344427
0.618693	81.263879	939.335000	551.434504
0.626047	130.309042	883.508889	539.467270
0.626116	103.661071	866.518333	540.877741
0.688210	119.064936	973.316111	544.400939
0.678428	28.007805	910.208333	550.029164
0.742811	95.686378	944.189444	553.190211
0.797481	136.616646	888.363333	540.877741
0.818712	74.199596	873.800000	542.287532
0.908072	66.919345	910.208333	550.029164
0.993686	142.978796	844.673333	547.216422
1.067713	81.018729	941.762222	540.877741
1.215836	101.005941	859.236667	541.230253
1.406559	140.026315	927.198889	539.819951
1.600333	123.771324	890.790556	538.761779
1.684906	107.574716	910.208333	542.639873
1.745821	147.521947	902.926667	544.400939
1.804793	73.529163	934.480556	551.785731
2.061840	65.886576	839.818889	540.525187
2.305984	126.889682	868.945556	539.819951
2.804539	116.909634	919.917222	543.696641
2.847070	153.083823	881.081667	554.594002
2.898478	137.166664	907.781111	544.400939
3.188343	132.955461	898.072222	547.919865
3.264658	55.573669	946.616667	546.512808
3.454203	127.506998	864.091111	540.525187
3.839672	69.378048	898.072222	540.877741
3.953661	99.836062	866.518333	539.467270
4.183166	98.274708	871.372778	539.114546
4.433482	141.029857	917.490000	539.467270
4.642731	110.363506	849.527778	545.457066
5.065870	144.694886	866.518333	541.230253
5.242372	97.763954	851.955000	544.048811
5.417484	52.297944	953.898333	539.114546
6.136038	95.516906	885.936111	557.750004
6.558486	111.794690	898.072222	544.753024
6.698837	113.826351	946.616667	542.639873
6.836140	156.984799	902.926667	540.172591
7.062661	117.454955	919.917222	538.408970
7.282521	130.107978	883.508889	540.525187
7.880290	155.674941	864.091111	540.877741
8.019810	105.988098	883.508889	546.864636
8.574149	149.238292	898.072222	545.457066
8.743085	133.887614	997.588333	543.344427
8.847568	116.811279	951.471111	540.172591
9.197027	153.312680	961.180000	549.326236
9.321084	99.328391	966.034444	539.114546
9.930085	114.150002	1009.724444	546.864636
10.093471	94.104085	1000.015556	543.696641
10.322837	114.533695	985.452222	548.271522
10.986237	77.508749	1048.560000	544.048811
11.157042	141.401646	1070.405000	540.172591
12.436461	57.644216	1143.221667	540.877741
12.519577	72.800407	1118.949444	541.582722
12.775932	63.392776	1155.357778	549.326236
13.818346	69.661523	1143.221667	545.105066
14.048474	79.715234	1203.902222	551.083233
14.343059	47.927962	1233.028889	541.230253
14.493467	63.806204	1208.756667	540.525187
15.665278	41.432196	1281.573333	540.172591
15.808480	33.367324	1347.108333	539.114546
16.548327	25.003327	1356.817222	543.696641
16.446272	25.678118	1410.216111	540.525187
16.704509	26.395746	1463.615000	545.457066
16.790323	24.283907	1393.225556	546.160937
17.049804	27.435907	1388.371111	546.512808
17.214231	27.745835	1444.197222	546.864636
17.418063	23.944676	1444.197222	539.467270
17.580614	23.969195	1415.070556	550.380563
17.764400	23.614277	1502.450556	540.525187
17.934170	20.828170	1550.995000	545.105066
18.786770	17.707376	1560.703889	540.877741
18.868843	19.437153	1577.694444	544.400939
19.377182	18.404130	1643.229444	540.877741
20.790631	19.088842	1614.102778	544.048811
20.945563	18.742976	1691.773889	539.467270
21.127258	20.136484	1701.482778	540.525187
21.383689	17.354621	1713.618889	546.160937
21.479292	15.970351	1820.416667	540.877741
21.996368	20.487591	1793.717222	541.230253
22.412703	17.709641	1885.951667	543.696641
23.007907	17.359065	1861.679444	545.105066
23.061058	13.887275	2012.167222	539.467270
23.160270	16.314397	1934.496111	545.809023
23.506326	17.356843	1876.242778	542.639873
23.612888	17.010798	1834.980000	544.048811
23.780101	17.361286	1827.698333	545.809023
23.851478	15.968307	1932.068889	539.114546
23.885753	17.705110	1902.942222	541.582722
23.934251	16.664708	1912.651111	540.877741
24.005220	13.887275	2058.284444	544.048811
23.945912	17.707376	1825.271111	544.753024
24.006196	16.666841	1866.533889	538.761779
24.323743	16.666841	1885.951667	542.992172
24.450572	15.964217	2024.303333	544.400939
25.236080	17.012975	2051.002778	540.877741
25.209653	15.620172	2021.876111	544.048811
25.471344	14.925947	2087.411111	541.582722
25.404657	15.277947	2048.575556	556.347768
25.287489	15.970351	2043.721111	540.172591
