power (mW)	FWHM	peak value	peak location
0.958955	72.433607	822.828333	542.992172
1.024392	122.411858	851.955000	545.457066
1.036866	107.785789	817.973889	544.400939
1.090520	76.676387	893.217778	539.467270
1.123477	78.666141	844.673333	539.114546
1.157130	32.411331	796.128889	541.935148
1.199435	153.432129	830.110000	539.114546
1.335193	43.924664	900.499444	539.467270
1.502900	137.817276	805.837778	543.344427
1.862487	54.178914	779.138333	540.525187
2.160368	141.397992	834.964444	548.623136
2.304592	18.398172	791.274444	546.160937
2.464034	55.779930	856.809444	540.877741
3.034111	161.188204	832.537222	552.136916
3.283695	114.467833	910.208333	540.877741
3.895393	112.046286	885.936111	542.287532
4.024818	147.532120	893.217778	567.895435
4.784312	141.139520	861.663889	541.935148
5.193877	101.049069	968.461667	566.498243
5.885447	146.454650	929.626111	561.952550
6.292534	105.947057	1002.442778	541.582722
6.861042	143.608589	992.733889	590.501044
7.536647	148.434901	1004.870000	565.799385
8.333547	114.482841	1063.123333	539.467270
8.844915	62.696234	1351.962778	562.652366
9.435977	73.459767	1196.620556	564.051477
10.839968	8.047382	2640.817778	562.302480
11.380915	7.347611	3063.154444	562.302480
11.927933	6.648665	4335.018889	561.952550
12.628960	5.599225	5728.244444	561.952550
13.497542	4.899322	7565.651667	539.819951
15.287697	5.949546	5434.550556	561.952550
16.375571	5.249600	12951.657778	561.952550
17.472707	4.549654	28172.768333	561.952550
18.694859	4.199420	34418.011111	561.952550
18.275713	4.899931	34971.417778	561.602576
20.775387	4.550218	36102.503333	561.602576
21.222490	4.900539	43185.137778	561.252560
21.866127	4.900539	39240.901667	561.252560
23.325846	5.250903	46583.248889	560.902499
24.895793	5.250903	56066.406111	560.902499
23.861811	5.601311	55095.517222	560.902499
26.533463	4.901755	55335.812222	560.552395
28.127732	5.602005	55151.343333	560.552395
26.797090	4.901755	60750.945000	560.552395
30.232348	5.252206	63214.575556	560.552395
29.503359	5.602700	57127.102222	560.202248
32.554961	4.902363	50886.713889	560.202248
35.279600	5.252206	58634.407222	560.202248
35.916921	5.252206	57695.072222	560.202248
36.427192	4.902363	54148.900556	560.202248
36.282787	4.902363	52731.402778	560.202248
37.762442	4.902363	47590.546111	560.202248
40.381906	5.252857	49702.229444	560.202248
38.334964	4.902363	44804.095000	560.202248
41.096653	5.252857	38090.398333	560.202248
40.817891	5.252857	35840.363333	559.852058
44.017844	5.252857	32954.396111	560.202248
46.381604	5.252857	33063.621111	560.202248
46.666043	4.901755	34995.690000	560.552395
47.635820	5.252206	31993.216111	560.202248
47.750271	5.252206	32767.500000	560.552395
49.459066	5.602005	13335.158889	560.552395
50.949661	4.551348	38624.387222	560.552395
50.815351	5.252206	27981.017778	560.552395
49.749677	5.251555	24524.653333	560.552395
52.843738	4.551912	32983.522778	560.552395
53.869001	4.901755	25973.705000	560.552395
56.892219	5.251555	20274.587222	560.552395
59.101862	4.551348	25396.026111	560.902499
60.704841	5.251555	27658.197222	560.552395
59.146578	5.602005	25803.799444	560.552395
62.536055	4.901755	26211.572778	560.552395
62.676765	4.901755	24359.602222	560.552395
63.361300	5.951761	18553.686667	560.552395
63.288140	5.251555	18594.949444	560.902499
62.384533	5.251555	16201.708333	560.552395
64.281959	4.551348	21243.048889	539.819951
66.823093	5.602005	13844.875556	560.552395
66.399172	5.251555	16077.920000	560.902499
67.193776	4.901755	18757.573333	560.552395
69.676522	5.951023	10597.252222	560.902499
69.539478	5.601311	12437.086667	560.902499
69.666015	5.601311	11269.592778	560.902499
70.627724	5.951023	11245.320556	561.252560
69.810344	5.951761	11932.224444	560.552395
71.162087	5.251555	12951.657778	560.552395
73.793488	6.651142	7626.332222	560.902499
73.179992	5.600616	13327.877222	561.252560
72.893230	5.951023	8864.215556	560.902499
75.869753	6.650317	6791.367778	561.252560
77.230018	6.650317	6626.316667	561.252560
73.467788	5.600616	10531.717222	561.252560
74.957963	7.350349	6480.683333	561.252560
75.068613	5.950284	9262.280000	561.252560
75.264707	6.999899	7167.587222	561.602576
74.311659	7.350349	6199.125556	561.252560
79.345508	6.650317	6024.365556	561.252560
74.655360	6.999899	6432.138889	561.252560
72.426595	6.999899	5936.985556	561.602576
