power (mW)	FWHM	peak value	peak location
12.641460	10.128991	5102.021111	566.148836
11.751095	5.940660	8000.124444	566.148836
11.849220	4.892615	9097.228889	565.799385
11.906882	5.591559	9004.994444	541.230253
12.508462	6.640390	7514.680000	541.582722
12.356546	5.592257	12347.279444	542.287532
12.374806	5.942144	10046.272778	541.230253
12.524609	5.592955	11730.765000	565.100353
12.449616	5.243723	14174.977778	539.467270
12.227080	5.593653	13740.505000	540.877741
12.552720	5.244377	11898.243333	542.287532
11.804020	5.594350	14611.877778	564.401146
12.124748	4.895057	12085.139444	543.344427
11.651802	5.245030	12039.022222	542.992172
12.654009	4.895667	13403.121111	539.819951
12.160232	4.895667	16087.628889	540.525187
11.692365	4.896277	14354.592222	542.992172
12.129121	5.595744	12475.922222	542.287532
12.256926	6.295211	10699.195556	538.056118
12.818798	5.596441	12519.612222	540.172591
12.976796	5.946588	11733.192222	541.935148
12.860295	6.295995	11687.075000	563.002209
11.454626	6.296779	12303.589444	539.114546
12.078863	6.296779	9827.822778	540.172591
12.208592	6.296779	10883.664444	540.525187
12.351684	6.296779	11014.734444	562.652366
11.647231	5.247643	14607.023333	562.652366
12.332134	6.647012	9420.049444	541.935148
12.190635	5.947328	12259.899444	562.652366
12.436875	5.947328	11099.687222	562.652366
12.394555	6.647012	9609.372778	541.230253
12.789586	5.947328	10611.815556	539.467270
12.231856	6.997290	9534.128889	544.048811
11.855320	6.297562	9667.626111	538.761779
12.414949	6.647012	8082.650000	562.652366
12.046973	6.297562	8958.877222	539.819951
12.221916	7.346697	7725.848333	562.652366
12.138580	6.997290	8114.203889	542.639873
12.051902	6.997290	8801.107778	562.302480
11.784554	7.346697	7284.093889	541.582722
12.023771	8.744977	6541.363889	540.172591
12.348288	9.443398	5907.858889	562.652366
12.375659	7.346697	6973.409444	545.105066
12.202687	9.442222	5975.821111	543.344427
12.170484	8.394656	6123.881667	544.753024
12.496681	10.141644	5745.235000	539.114546
12.069061	9.093077	6007.375000	540.525187
12.407606	9.093077	5461.250000	563.002209
11.847274	9.093077	5390.860556	539.819951
12.651401	9.791323	5293.771667	544.048811
12.408912	9.791323	5483.095000	540.877741
12.053030	8.742800	5337.461667	562.652366
12.039373	12.932876	4517.060556	538.761779
12.273948	9.442222	5271.926667	540.172591
11.992486	14.675969	4390.845000	563.002209
12.158251	12.931262	4373.854444	539.819951
12.549076	7.345783	5500.085556	542.639873
12.457291	12.584125	4250.066111	544.400939
11.895896	13.279924	4332.591667	540.172591
11.946814	14.675969	4063.170000	540.877741
12.373109	15.022578	3895.691667	563.002209
12.252009	13.977118	4179.676667	563.002209
12.430884	18.161131	3495.200000	540.877741
12.128347	15.024456	3922.391111	543.344427
12.275144	16.417964	3665.105556	539.467270
11.689744	18.161131	3543.744444	544.048811
12.112166	17.812996	3250.050556	542.992172
11.303588	15.372899	3776.757778	542.639873
11.920078	15.721298	3679.668889	544.048811
11.596283	19.553228	3223.351111	540.172591
11.998310	17.810767	3315.585556	542.287532
12.323793	19.901141	3172.379444	540.172591
12.348084	19.901141	3099.562778	563.002209
11.762900	17.812996	3196.651667	563.002209
11.747293	18.509221	3196.651667	563.002209
12.283095	19.903635	2997.619444	563.002209
12.021482	17.116595	3407.820000	562.652366
12.118878	16.417964	3543.744444	545.809023
11.983085	20.249011	3046.163889	540.172591
11.992458	17.114453	3330.148889	538.761779
11.422749	22.338104	2866.549444	539.819951
11.841612	20.254086	3021.891667	563.002209
12.010285	21.295025	2905.385000	563.002209
12.065427	20.596837	2822.859444	539.819951
12.296953	29.289136	2582.564444	563.352009
13.101050	24.072657	2720.916111	539.114546
12.610878	21.645476	2871.403889	540.877741
12.072887	25.117697	2694.216667	541.582722
11.779926	28.244899	2347.123889	540.172591
12.261503	27.203950	2427.222222	542.639873
11.841726	23.731234	2589.846111	539.114546
11.757480	26.853500	2490.330000	539.114546
11.671295	26.853500	2322.851667	541.582722
12.209949	27.901472	2366.541667	563.352009
12.244716	23.380783	2601.982222	563.002209
12.065126	27.203950	2463.630556	539.467270
12.393255	26.860256	2281.588889	563.002209
12.001151	25.117697	2500.038889	563.352009
12.485094	21.642762	2667.517222	562.652366
12.146619	25.120853	2322.851667	540.877741
