power (mW)	FWHM	peak value	peak location
-0.039431	38.169715	179.614444	0.000000
-0.037297	103.626487	155.342222	0.000000
-0.036659	71.930991	177.187222	0.000000
-0.036992	125.512215	172.332778	0.000000
-0.041907	79.603933	184.468889	0.000000
-0.037721	22.162337	196.605000	0.000000
-0.027982	85.424272	240.295000	0.000000
-0.008537	14.661281	189.323333	0.000000
-0.008312	111.253657	174.760000	0.000000
-0.007390	25.724097	189.323333	0.000000
0.003176	50.366105	213.595556	0.000000
0.016646	109.486877	199.032222	0.000000
0.038281	18.058040	218.450000	0.000000
0.052474	17.451694	225.731667	0.000000
0.069551	29.542209	230.586111	0.000000
0.092774	31.599229	252.431111	0.000000
0.118243	48.853665	259.712778	0.000000
0.149131	35.743121	300.975556	0.000000
0.169815	40.694570	303.402778	0.000000
0.196470	27.179962	327.675000	0.000000
0.226559	39.288374	325.247778	0.000000
0.229396	39.288374	325.247778	0.000000
0.290140	36.437135	381.073889	585.300981
0.296007	18.129229	458.745000	580.090909
0.335164	38.597948	495.153333	578.352003
0.383071	53.977139	461.172222	579.047698
0.384346	29.244781	521.852778	569.640940
0.447491	36.488413	536.416111	569.291927
0.485061	40.668687	563.115556	570.687718
0.504142	44.138822	526.707222	564.401146
0.561232	40.679045	645.641111	563.002209
0.646711	10.490701	859.236667	562.652366
0.635701	31.353460	783.992778	562.652366
0.714088	27.876868	1257.301111	562.652366
0.788875	16.762034	1322.836111	562.652366
0.804471	5.248295	1878.670000	562.302480
0.876833	5.597833	1927.214444	562.652366
0.908548	5.248295	2429.649444	562.652366
0.945032	5.248295	2514.602222	562.652366
0.974549	4.898714	2961.211111	562.302480
1.059739	4.898714	3575.298333	562.302480
1.123423	4.898714	4143.268333	562.302480
1.173999	4.898714	5274.353889	562.302480
1.241853	4.548523	5322.898333	562.302480
1.328477	4.198898	7225.840556	562.302480
1.375542	4.198898	7225.840556	562.302480
1.363387	4.549088	6602.044444	562.302480
1.415026	4.898714	7335.065556	562.302480
1.481720	4.549088	8597.221111	562.302480
1.571310	4.198898	9776.851111	562.302480
1.653696	4.898714	9827.822778	562.302480
1.715465	4.549088	10847.256111	562.302480
1.730064	4.549088	11106.968889	562.302480
1.829066	4.549088	11684.647778	562.302480
1.837704	4.549088	12313.298333	562.302480
1.956854	4.549088	13607.007778	562.302480
2.029627	4.549088	14687.121667	562.302480
2.128314	4.549088	16005.103333	562.302480
2.120076	4.549088	15721.118333	562.302480
2.230225	4.549088	15432.278889	562.302480
2.273226	4.549088	16684.725556	561.952550
2.364024	4.549088	18480.870000	561.952550
2.437088	4.549088	17383.765556	561.952550
2.503981	4.549088	19648.363889	561.952550
2.528261	4.549088	19514.866667	561.952550
2.544545	4.549088	18900.779444	561.952550
