power (mW)	FWHM	peak value	peak location
-0.246461	62.282945	750.497111	541.582722
-0.231643	114.563357	782.536444	542.639873
-0.230867	141.120750	780.594667	540.877741
-0.216284	129.354465	774.769333	540.172591
-0.194133	28.470405	788.361778	548.974707
-0.147097	65.858320	755.837000	545.809023
-0.049463	24.472328	765.060444	542.992172
-0.005835	104.034297	762.147778	546.864636
0.048763	149.249150	759.720556	541.582722
0.183672	146.551879	770.400333	538.761779
0.319669	134.800071	762.147778	537.350288
0.550723	124.904662	767.487667	544.048811
0.626416	121.134706	792.730778	551.785731
0.807784	124.548424	786.420000	540.877741
0.978682	103.885243	769.914889	547.568165
1.245237	164.365013	774.283889	541.230253
1.415970	133.017516	763.604111	540.877741
1.753035	139.284329	781.080111	540.525187
1.881202	162.290369	783.021889	574.522524
2.073417	137.464679	792.245333	544.753024
2.377076	154.097592	836.906222	540.172591
2.678151	114.414073	876.227222	538.761779
3.144742	115.524472	979.141444	540.525187
3.166884	153.478655	967.005333	542.992172
3.604239	78.834547	1129.143778	543.696641
3.981363	61.652212	1196.620556	543.344427
4.443701	48.610090	1266.524556	545.105066
4.789759	54.789133	1353.419111	539.467270
5.106540	54.445896	1326.234222	567.546203
5.619408	49.973248	1342.253889	540.172591
5.624600	59.247052	1328.176000	568.244624
6.368834	60.266924	1387.885667	550.731920
6.443340	59.581963	1368.467889	538.761779
6.949945	55.454063	1441.770000	570.687718
7.456550	54.417896	1484.489111	546.864636
7.635207	52.015233	1561.674778	544.048811
8.246757	47.178995	1746.629111	541.935148
9.101325	42.355165	1790.804556	542.287532
9.279942	42.005322	1894.689667	540.525187
9.724981	39.932733	2034.497667	541.230253
10.377564	41.994565	2056.342667	540.525187
10.903764	41.650189	2085.954778	542.639873
11.000208	38.538902	2218.966556	541.935148
12.144447	36.465129	2381.590444	541.582722
12.443035	36.805342	2501.009778	538.761779
12.805493	34.730978	2543.728889	542.992172
13.011907	33.691237	2601.982222	540.877741
14.006222	34.036383	2731.110444	538.761779
14.052253	34.032033	2750.042778	575.567456
14.570660	34.032033	2623.341778	539.114546
15.646832	30.916611	3101.990000	548.623136
16.246402	30.920558	3198.593444	540.525187
16.051970	30.916611	3138.883778	576.263858
17.038363	30.567291	3348.595778	541.230253
17.263888	30.221875	3350.537556	541.230253
18.122862	29.530907	3605.395889	545.809023
18.724039	28.836080	3701.999333	547.568165
19.660213	27.799157	3878.215667	539.467270
19.622998	28.490484	3864.623222	539.467270
19.884994	27.795610	3986.469778	548.271522
20.505039	28.141251	4010.256556	576.960083
21.048823	28.141251	3974.333667	545.105066
21.526334	27.795610	4090.840333	542.287532
21.978165	26.755005	4370.941778	539.467270
22.976622	26.755005	4467.545222	541.935148
23.143107	26.755005	4390.845000	542.992172
23.632292	26.409229	4599.100667	539.114546
23.731386	26.755005	4430.166000	540.525187
24.099482	26.409229	4500.070000	539.819951
24.688183	26.060084	4693.762333	542.639873
24.838277	26.405860	4612.207667	540.525187
25.156803	25.714263	4889.881889	541.582722
26.940719	25.019296	5175.808667	544.048811
26.917510	25.714263	5228.236667	539.114546
27.055622	25.710983	5195.226444	543.344427
27.916056	25.019296	5419.016333	549.326236
27.535095	25.365162	5292.315333	542.639873
28.083955	25.710983	5460.279111	547.919865
29.061344	25.365162	5562.707889	578.699873
29.303447	25.019296	5676.301889	539.114546
29.220199	25.710983	5611.252333	542.639873
29.801397	25.710983	5689.408889	539.114546
30.215184	25.016105	5768.050889	542.992172
30.784461	24.670239	5832.615000	541.935148
31.363384	24.670239	6050.579556	539.114546
31.174887	23.975315	6208.834444	541.230253
31.386564	23.975315	6439.420556	542.992172
31.783037	24.321225	6510.780889	542.287532
32.343539	23.975315	6712.725778	539.467270
32.616180	24.667091	6462.721889	541.935148
32.811770	24.321225	6107.376556	540.525187
32.941829	23.972256	6619.520444	538.761779
32.941864	24.667091	6560.296222	541.230253
32.877410	24.321225	6629.229333	541.582722
33.210637	24.667091	6786.027889	542.639873
33.752254	23.972256	6980.691111	539.819951
33.670866	24.667091	6858.359111	542.639873
33.209693	24.667091	6750.590444	541.935148
33.704788	23.972256	6866.611667	541.582722
33.979972	24.318121	7002.536111	580.438558
33.531757	25.012912	6841.854000	540.877741
34.186027	23.972256	7008.846889	541.582722
34.171393	24.318121	7124.382667	580.090909
33.800267	24.318121	6956.904333	541.582722
