power (mW)	FWHM	peak value	peak location
-0.563511	35.866252	143.206111	0.000000
-0.553937	109.484684	135.924444	0.000000
-0.577318	93.576268	199.032222	0.000000
-0.536870	86.585323	140.778889	0.000000
-0.470544	110.281673	143.206111	0.000000
-0.423990	77.028216	143.206111	0.000000
-0.427737	77.028216	143.206111	0.000000
-0.353155	27.383698	191.750556	0.000000
-0.017570	7.345783	206.313889	0.000000
-0.017709	32.964201	155.342222	0.000000
0.123269	50.366291	191.750556	0.000000
0.152963	66.846224	150.487778	0.000000
0.302197	58.721479	150.487778	0.000000
0.372547	28.241342	162.623889	0.000000
0.443452	29.229955	186.896111	0.000000
0.544676	106.556800	242.722222	0.000000
0.990434	10.121378	186.896111	0.000000
1.072648	4.192622	225.731667	0.000000
1.174009	29.218823	250.003889	0.000000
2.021332	17.093000	252.431111	0.000000
2.076143	62.988628	276.703333	0.000000
2.121655	3.842036	264.567222	0.000000
2.410687	26.479711	300.975556	0.000000
2.602173	14.338164	305.830000	0.000000
2.931304	14.338164	305.830000	0.000000
3.018097	15.727191	334.956667	0.000000
3.872428	9.776655	422.336667	0.000000
4.334976	9.776655	422.336667	0.000000
4.776499	28.234225	354.374444	0.000000
4.790656	11.176114	415.055000	568.942870
4.777959	6.984205	390.782778	566.498243
5.043403	32.763443	395.637222	568.942870
5.309263	14.677803	415.055000	567.546203
5.449198	20.878670	456.317778	566.498243
5.774029	20.939363	383.501111	566.498243
6.885548	18.869064	458.745000	568.593768
7.084871	27.561374	376.219444	566.498243
7.826531	21.582825	436.900000	566.148836
7.967509	21.976651	449.036111	568.593768
8.023774	19.176343	514.571111	566.148836
8.470158	14.661281	584.960556	566.148836
8.833701	25.795907	601.951111	566.148836
10.398466	25.795907	601.951111	566.148836
10.448765	20.238852	635.932222	566.498243
11.166215	22.682860	601.951111	567.895435
11.166215	17.808536	737.875556	567.546203
11.497705	19.553228	822.828333	565.100353
12.269128	16.411800	742.730000	566.498243
12.705177	19.903635	808.265000	566.148836
12.898392	20.601999	774.283889	566.498243
14.059381	16.067643	791.274444	566.148836
14.327458	16.762034	830.110000	565.799385
14.481340	14.672301	980.597778	564.401146
14.890189	11.534733	1240.310556	563.701765
14.967196	11.185895	1502.450556	563.352009
15.460001	13.278266	1216.038333	564.051477
16.859230	20.243933	961.180000	565.799385
16.911605	20.243933	961.180000	565.799385
17.008530	10.837012	1461.187778	564.051477
17.358196	13.276607	1271.864444	564.401146
17.898449	9.089679	1844.688889	563.701765
18.180752	6.994678	2842.277222	563.352009
18.410609	8.043377	2381.105000	563.352009
19.609606	6.645358	3017.037222	563.352009
19.931033	5.945108	4594.731667	563.701765
20.583274	6.645358	5599.601667	563.352009
20.509099	7.693187	2575.282778	563.701765
21.729695	6.994678	3995.207778	563.352009
22.097599	6.994678	3995.207778	563.352009
22.137912	6.645358	4468.516111	563.352009
22.588797	6.295995	6791.367778	563.352009
23.176728	4.897496	3063.154444	563.002209
23.782804	4.897496	3063.154444	563.002209
23.994771	6.295995	7305.938889	563.352009
24.810867	5.246990	8170.030000	563.002209
25.035028	6.295995	6507.382778	563.352009
25.207016	6.645358	5570.475000	563.352009
26.023881	6.295995	6759.813889	563.352009
25.760592	6.295995	6759.813889	563.352009
26.326373	5.945848	8750.136111	563.352009
26.207244	6.295211	6065.628333	563.352009
26.350868	5.945848	8352.071667	563.352009
26.774701	5.945848	9788.987222	563.352009
27.685443	5.945848	9788.987222	563.352009
27.738992	5.595744	8085.077222	563.701765
28.274742	5.595744	10165.206667	563.701765
28.738045	6.295211	8415.179444	563.701765
28.840529	5.945848	12284.171667	563.701765
28.865710	5.595744	13420.111667	563.701765
29.390625	5.595744	13420.111667	563.701765
29.602852	5.595744	14597.314444	563.701765
30.506091	5.595744	14810.910000	563.701765
29.954458	5.945848	11012.307222	563.352009
29.666963	5.246337	15104.603889	563.352009
30.217557	6.295211	9735.588333	563.701765
30.551131	5.246337	23825.613333	563.352009
30.187088	5.595744	14230.803889	563.352009
30.843209	5.595744	17631.342222	563.352009
30.170591	5.595744	13002.629444	563.352009
30.173776	5.246337	23073.174444	563.352009
30.842235	5.246337	23073.174444	563.352009
31.008055	5.595744	21825.582222	563.701765
31.113148	4.896277	24650.868889	563.701765
30.865901	5.595744	18818.253889	563.701765
31.440701	5.246337	27794.121667	563.701765
30.903704	4.546260	36177.747222	563.701765
31.288686	4.546260	36177.747222	563.701765
30.739902	5.246337	22677.537222	563.701765
30.631534	4.896277	25391.171667	563.701765
30.024813	4.896277	25391.171667	563.701765
30.269383	5.595744	18480.870000	563.701765
30.432840	5.246337	17279.395000	563.701765
30.151151	5.246337	25927.587778	563.701765
29.726699	5.945848	30859.703333	563.352009
29.204835	4.546826	23699.397778	563.701765
30.061164	4.546826	23699.397778	563.701765
29.409010	4.546826	33500.521111	563.701765
29.333747	4.896277	27828.102778	563.701765
30.164404	5.945848	24512.517222	563.352009
29.658846	5.246337	19898.367778	563.701765
28.614619	5.245684	31621.851111	563.701765
29.054130	5.595744	22864.433333	563.701765
