power (mW)	FWHM	peak value	peak location
0.049533	38.184138	66.020444	0.000000
0.057583	53.251918	72.816667	0.000000
0.090749	67.231781	75.729333	0.000000
0.121253	49.921946	63.593222	0.000000
0.166329	160.130031	82.525556	0.000000
0.213639	61.394916	71.360333	0.000000
0.271182	93.586368	65.535000	0.000000
0.345878	46.483163	73.302111	0.000000
0.354843	26.966887	66.020444	0.000000
0.469544	25.947500	74.273000	0.000000
0.525491	80.968145	75.729333	0.000000
0.622479	98.444489	76.700222	0.000000
0.742625	101.317005	73.302111	0.000000
0.735939	133.278225	79.127444	0.000000
0.862135	9.394854	76.700222	0.000000
0.965355	116.052922	80.098333	0.000000
1.056111	116.052922	80.098333	0.000000
1.206217	130.244850	93.690778	0.000000
1.348717	53.011083	108.739556	0.000000
1.349507	53.011083	108.739556	0.000000
1.537331	36.885140	102.914222	0.000000
1.682635	8.026297	106.312333	0.000000
1.793095	90.669467	82.525556	0.000000
1.816793	12.921565	99.516111	0.000000
1.903678	114.653289	108.254111	0.000000
2.298811	8.393611	131.555444	0.000000
2.298945	87.666448	116.992111	0.000000
2.678894	12.932876	177.187222	0.000000
2.680247	14.327439	161.167556	0.000000
2.946568	9.091945	222.333556	0.000000
2.979587	7.343954	233.984222	0.000000
3.199310	7.694145	299.033778	0.000000
3.352624	6.648665	364.568778	562.652366
3.567672	5.948807	413.113222	562.302480
3.721953	6.298345	506.804000	562.302480
3.911917	5.248295	575.251667	562.302480
4.047811	6.997290	602.436556	562.302480
4.070969	7.346697	616.999889	562.302480
4.386242	5.948807	785.934556	561.952550
4.558527	5.948807	947.587556	561.952550
4.730370	5.948807	1004.870000	561.952550
4.958779	5.599225	1156.328667	561.952550
5.158113	5.599225	1206.814889	561.952550
5.350053	5.599225	1394.681889	561.952550
5.401313	5.599225	1417.497778	561.952550
5.497894	5.599225	1694.201111	561.602576
5.945039	5.949546	1711.677111	561.602576
6.255823	5.599920	2035.468556	561.602576
6.321819	5.599920	2095.178222	561.602576
6.570258	4.899931	2447.610889	561.602576
6.632325	5.249600	2001.972889	561.602576
6.578336	5.599920	2134.499222	561.602576
6.971111	5.599920	2395.182889	561.602576
7.297794	5.250252	2558.777667	561.602576
7.463928	5.599920	2617.516444	561.602576
7.703846	5.250252	2784.023889	561.602576
7.793472	5.599920	2600.040444	561.602576
7.979747	5.250252	2932.084444	561.252560
8.211397	5.250252	2865.093111	561.252560
8.278972	5.250252	2650.526667	561.252560
8.505099	5.600616	2649.070333	561.252560
8.958177	5.250252	2943.249667	561.252560
9.015044	5.250252	2939.366111	561.252560
9.075581	5.600616	2883.054556	561.252560
9.406847	5.600616	3095.193778	561.252560
9.395149	5.600616	2831.112000	561.252560
9.641278	5.600616	2711.692667	561.252560
9.870300	5.600616	2769.460556	561.252560
9.943466	5.950284	2437.416556	561.252560
9.872373	5.600616	2501.980667	561.252560
10.426860	5.950284	2496.155333	561.252560
10.449656	5.950284	2495.669889	561.252560
10.868472	5.950284	2411.688000	561.252560
10.648169	5.950284	2458.776111	561.252560
10.882588	5.950284	2300.521222	561.252560
10.932852	5.950284	2264.598333	561.252560
11.116491	5.950284	2252.462222	561.252560
11.142218	5.950284	2220.908333	561.252560
11.624711	6.299910	2093.236444	561.252560
11.301739	6.299910	1980.613333	561.252560
11.580860	6.299910	1992.264000	561.252560
11.734934	6.299910	1939.836000	561.602576
12.022978	6.299910	1988.380444	561.252560
12.039226	6.299910	2001.487444	561.602576
12.163077	6.299910	2001.002000	561.602576
12.324685	6.299910	1885.951667	561.602576
12.481433	6.299910	1866.533889	561.602576
12.344085	6.299910	1866.533889	561.602576
12.283845	6.649491	1684.492222	561.602576
12.438251	6.649491	1681.579556	561.602576
12.527614	6.649491	1593.714111	561.602576
12.832349	6.648665	1409.730667	561.952550
12.881009	6.299127	1507.305000	561.952550
12.920931	6.299127	1601.966667	561.952550
12.670700	6.998160	1440.313667	561.952550
12.592738	7.348524	1389.827444	561.952550
12.642017	6.299127	1522.353778	561.952550
12.902266	6.999029	1422.837667	561.952550
12.622432	7.347611	1378.176778	561.952550
13.063174	7.347611	1350.506444	561.952550
12.806136	6.998160	1300.991111	561.952550
12.779863	6.648665	1352.448222	561.952550
12.752122	6.998160	1267.495444	561.952550
12.455230	7.697975	1192.251556	561.952550
12.615979	7.347611	1242.252333	561.952550
