power (mW)	FWHM	peak value	peak location
0.057329	100.031061	86.894556	0.000000
0.072204	63.697281	74.758444	0.000000
0.077378	39.467286	89.321778	0.000000
0.149465	56.038460	88.350889	0.000000
0.151169	20.123589	80.583778	0.000000
0.217753	122.498420	109.225000	0.000000
0.293020	29.884039	100.972444	0.000000
0.300173	34.027681	114.079444	0.000000
0.406785	5.910022	121.846556	0.000000
0.462225	14.332804	126.701000	0.000000
0.580031	24.033241	140.293444	0.000000
0.600656	45.931923	161.167556	0.000000
0.786150	29.266981	173.303667	0.000000
0.824675	28.227102	181.556222	0.000000
0.908437	26.476366	205.828444	0.000000
1.055247	16.045489	203.886667	0.000000
1.059611	20.233767	224.760778	0.000000
1.286280	26.823037	252.431111	0.000000
1.297289	25.073387	257.285556	0.000000
1.536673	28.205706	318.937000	0.000000
1.595058	27.169664	306.800889	0.000000
1.699009	19.886162	341.267444	568.942870
1.870489	18.138359	372.821333	567.196927
1.974221	23.710357	397.579000	567.196927
2.140526	19.540968	433.016444	565.799385
2.236572	17.445122	556.804778	565.449891
2.412090	15.707523	709.234333	565.100353
2.583071	12.571548	868.945556	564.750771
2.849980	7.690310	1335.457667	564.401146
3.022121	6.992064	1425.750333	564.401146
3.100262	5.594350	1885.951667	564.401146
3.366782	5.245030	2305.861111	564.401146
3.385154	5.245030	2559.748556	564.051477
3.445669	4.895667	2987.425111	564.051477
3.567222	4.895667	3224.322000	564.051477
3.686066	4.895667	3885.497333	564.051477
3.778137	4.546260	5816.595333	564.051477
4.399294	4.546260	7506.427444	564.051477
4.403402	4.546260	9030.237556	563.701765
4.752634	4.546260	9694.811000	563.701765
4.779446	4.196809	12278.346333	563.701765
4.749992	4.546826	11724.454222	563.701765
5.095061	4.546826	14474.497000	563.701765
5.324260	4.546826	16262.388889	563.352009
5.768433	4.197331	19268.260889	563.352009
5.852702	4.197331	20467.794111	563.352009
5.927429	4.197331	22481.417667	563.352009
5.996793	4.197331	24776.113556	563.352009
6.237493	4.197331	26091.668000	563.352009
6.488148	3.847793	29448.516333	563.352009
6.616196	4.197854	29898.037889	563.002209
7.099647	4.197854	33313.625000	563.002209
7.140002	4.197854	35281.131333	563.002209
7.350675	4.197854	37491.359889	563.002209
7.594510	3.848272	39667.121889	563.002209
7.669220	4.198376	41649.191556	562.652366
7.886423	4.198376	44259.426333	562.652366
7.959047	4.198376	42620.080444	562.652366
7.992766	4.548523	43175.428889	562.652366
8.342134	4.548523	45899.257667	562.652366
8.701222	4.548523	48080.845000	562.302480
8.864782	4.548523	48140.069222	562.302480
9.028642	4.548523	49468.730667	562.302480
8.948364	4.548523	48842.507333	562.302480
9.078575	4.548523	47829.384778	562.302480
9.408228	4.548523	48502.210778	562.302480
9.803279	4.898714	42725.907333	562.302480
9.810281	4.548523	37660.780000	562.302480
9.973931	4.548523	42143.374000	562.302480
10.171053	4.548523	39526.343000	562.302480
10.172827	4.548523	38506.424222	562.302480
10.355132	4.548523	39990.427889	562.302480
10.617218	4.548523	41599.190778	562.302480
10.788592	4.548523	37986.513222	562.302480
10.900329	4.898714	32896.628222	562.302480
11.090193	4.548523	31551.947111	562.302480
11.433299	4.548523	31049.026667	562.652366
11.408539	4.548523	25918.849778	562.652366
11.739247	4.548523	26276.136889	562.302480
11.591697	4.548523	24901.843667	562.302480
11.599356	4.898714	25634.864778	562.302480
11.550490	4.548523	23947.945333	562.652366
11.872967	4.898105	22033.352444	562.652366
11.815419	4.898105	21254.214111	562.652366
11.949847	4.898105	20147.886222	562.652366
11.953066	4.898105	18835.244444	562.652366
12.061874	4.898105	17522.602667	562.652366
12.043867	4.898105	16581.811333	562.652366
12.361804	4.898105	16581.325889	562.652366
12.146042	4.898105	15169.168000	562.652366
12.505185	5.247643	15308.490556	563.002209
12.305545	5.247643	13404.092000	563.002209
12.736890	5.247643	13210.399667	563.002209
12.834617	5.247643	13098.747444	563.002209
12.858295	5.247643	12219.607556	563.002209
12.673396	5.247643	12219.607556	563.002209
12.590647	5.247643	11733.192222	563.002209
12.691798	5.247643	10832.692778	563.002209
12.548948	5.247643	9936.562333	563.002209
12.526886	4.897496	9849.182333	563.002209
12.759060	4.897496	9870.056444	563.002209
12.679249	5.597137	8192.845889	563.002209
12.809831	5.247643	8965.188000	563.002209
12.462502	5.597137	7714.197667	563.002209
12.394666	5.597137	6932.632111	563.002209
