power (mW)	FWHM	peak value	peak location
-0.275391	95.022424	768.944000	541.230253
-0.272790	42.048297	786.905444	539.819951
-0.263238	23.529038	842.246111	543.344427
-0.213925	128.500122	790.303556	539.467270
-0.217518	79.370160	769.429444	544.048811
-0.190406	126.271538	796.128889	546.512808
-0.035185	116.535671	779.138333	553.541223
0.009778	131.864015	767.487667	539.467270
0.099692	139.617857	805.837778	539.467270
0.232044	154.928534	808.750444	541.230253
0.340700	136.988618	851.469556	540.877741
0.494446	103.411480	902.441222	546.160937
0.643537	136.407145	980.597778	545.105066
0.904724	149.902128	1030.598556	541.230253
0.907574	96.039144	1033.996667	572.082808
1.014149	106.348941	1081.084778	573.825682
1.427482	63.061883	1285.456889	538.056118
1.696535	60.983159	1384.973000	569.291927
1.928352	48.941618	1534.489889	545.457066
2.251624	43.082494	1698.570111	541.230253
2.663256	41.013652	1794.202667	542.992172
2.768034	42.048276	1786.921000	568.593768
3.111388	42.048276	1786.921000	568.593768
3.644900	34.447233	2236.442556	542.639873
3.665194	31.675755	2332.560556	544.400939
4.139188	28.209275	2708.294556	540.525187
4.492790	27.173098	2650.526667	541.935148
4.960845	25.086069	3148.592667	541.230253
5.401440	24.392326	3226.263778	567.895435
5.628384	26.126349	3207.816889	540.877741
5.776203	26.126349	3207.816889	540.877741
6.507982	24.732970	3517.045000	568.593768
6.585003	25.773117	3542.773556	540.525187
7.369472	26.462976	3591.803444	542.992172
7.418976	27.848677	3441.801111	570.338836
8.036336	27.152476	3755.398222	544.753024
8.202842	25.416796	3805.884444	570.687718
8.925644	25.067040	4159.773444	571.036557
9.446056	24.370746	4328.708111	541.230253
10.071422	23.674451	4633.081778	571.734101
10.480531	24.021077	4763.666333	541.230253
10.829695	24.018034	4828.230444	543.344427
11.157434	23.668452	5111.730000	542.992172
11.928140	22.975244	5369.015556	540.525187
12.140416	22.972332	5483.580444	544.400939
12.856595	21.929541	5837.954889	538.761779
13.230864	21.582825	5893.781000	539.467270
14.089239	22.276211	6048.637778	544.753024
14.203456	22.276211	6084.075222	544.400939
14.873653	21.926761	6450.585778	541.582722
15.318529	21.926761	6557.869000	541.230253
15.423023	22.273387	6604.957111	544.753024
15.517739	21.577354	6847.193889	573.825682
17.153602	21.230683	7386.037222	544.048811
17.086241	22.270562	7200.597444	574.174125
17.698971	21.227990	7481.669778	543.696641
18.032407	21.577354	7840.413222	540.877741
19.444128	21.227990	8009.833333	574.522524
19.804762	20.185284	8540.424111	544.048811
20.361656	20.531999	8605.473667	542.639873
19.910494	20.878670	8518.093667	545.809023
21.134598	20.531999	9281.697778	543.344427
21.521857	20.182723	9458.885000	540.525187
21.876354	20.876021	9026.839444	544.753024
22.398971	21.571878	9077.811111	575.219189
22.628551	20.876021	9220.046333	538.761779
23.191307	20.876021	9443.350778	542.639873
24.408692	20.529394	9930.737000	540.172591
25.199762	20.876021	10011.806222	540.172591
24.979273	20.873370	9233.638778	542.639873
25.651061	21.222602	10427.832111	539.114546
25.765587	20.873370	10377.345889	542.992172
26.305042	20.873370	10322.005222	539.467270
26.678753	21.566400	10130.254667	542.639873
26.631123	20.524181	10603.563000	539.114546
27.523143	20.177600	11149.202556	576.263858
27.893956	20.524181	11111.337889	576.263858
28.326794	21.219907	10946.286778	538.761779
29.201203	21.219907	11243.864222	540.525187
28.914713	20.524181	11134.153778	540.877741
29.051382	20.870718	11623.481778	576.960083
30.358164	20.524181	11979.312556	542.992172
30.089443	21.219907	11559.403111	541.230253
30.100476	20.175037	11976.885333	576.960083
30.609031	19.825935	12388.056778	538.408970
31.282560	21.217211	11830.766556	539.114546
31.840565	21.563659	11543.383444	543.344427
31.514779	20.868066	11805.038000	548.623136
31.517046	21.910062	11707.949111	541.582722
31.455476	20.868066	12314.269222	577.308129
32.074464	21.214514	12435.144889	577.656131
32.552326	21.214514	12361.357333	577.656131
32.809898	21.214514	12482.718444	541.582722
32.049523	21.214514	12089.023000	541.935148
32.309253	21.560917	12252.132333	578.004089
32.566888	21.214514	12262.326667	577.656131
32.646954	21.910062	12364.270000	577.308129
32.997588	21.560917	12157.956111	541.230253
32.972156	21.907275	12535.631889	541.582722
33.233715	22.256420	12456.019000	540.172591
33.606961	21.560917	13163.311556	542.639873
34.253985	21.560917	13493.899222	578.004089
34.583323	21.560917	13433.218667	577.656131
35.137441	21.560917	13567.201333	543.344427
34.699648	21.560917	13761.379111	541.582722
