power (mW)	FWHM	peak value	peak location
0.086569	91.993897	74.758444	0.000000
0.095889	88.265291	72.816667	0.000000
0.136254	52.853305	71.360333	0.000000
0.176760	104.518853	79.127444	0.000000
0.207309	118.694450	72.331222	0.000000
0.258134	73.028485	79.127444	0.000000
0.336677	50.996647	81.554667	0.000000
0.341332	113.574805	102.914222	0.000000
0.474348	69.907796	102.914222	0.000000
0.470898	65.784834	102.428778	0.000000
0.579968	9.419804	119.904778	0.000000
0.651266	13.251650	144.177000	0.000000
0.752196	32.001486	136.895333	0.000000
0.889743	22.966506	144.662444	0.000000
0.899629	50.660773	147.575111	0.000000
1.102807	23.698405	173.789111	0.000000
1.127170	31.293882	181.070778	0.000000
1.301723	15.015061	195.634111	0.000000
1.319591	23.348431	200.488556	0.000000
1.499869	20.558001	202.915778	0.000000
1.634358	25.760070	233.013333	0.000000
1.649255	16.378818	229.129778	0.000000
1.929549	22.287499	255.343778	0.000000
1.965335	21.599217	233.984222	0.000000
2.113964	19.508995	281.072333	0.000000
2.232565	26.459625	272.334333	0.000000
2.353862	20.558001	308.257222	0.000000
2.519076	20.907757	324.276889	0.000000
2.821491	25.429660	319.907889	0.000000
2.860855	22.304402	326.704111	0.000000
3.012575	26.833202	313.111667	0.000000
3.076507	21.960055	352.918111	0.000000
3.479606	24.039316	352.432667	568.593768
3.464199	24.042353	349.034556	570.338836
3.766872	23.354323	385.442889	568.942870
3.903032	21.962824	445.152556	566.498243
4.090485	23.013005	445.152556	565.799385
4.263570	21.612850	487.386222	565.799385
4.531151	20.223586	523.309111	565.449891
4.619026	18.140640	481.075444	565.799385
4.772334	21.268280	543.697778	565.799385
4.955292	15.703581	604.378333	565.449891
5.231805	15.703581	604.378333	565.449891
5.283681	19.876159	649.039222	565.449891
5.663581	10.827539	757.293333	565.100353
5.814234	10.827539	810.692222	565.100353
5.923992	12.569974	809.235889	565.100353
6.145394	10.131525	817.003000	565.100353
6.339608	6.990320	925.257111	564.750771
6.532942	12.221575	960.694556	564.750771
6.472324	5.593653	1005.840889	564.750771
6.993935	6.990320	1054.385333	564.750771
6.990652	7.340293	1081.084778	564.750771
7.473690	6.991192	1138.852667	564.750771
7.581199	6.642047	1197.106000	564.401146
7.459740	6.642047	1196.135111	564.401146
7.499364	6.292858	1266.524556	564.401146
7.762968	6.991192	1209.242111	564.401146
8.187762	5.943626	1288.369556	564.401146
8.261011	6.642875	1367.011556	564.401146
8.493604	6.293643	1422.352222	564.401146
8.843214	6.293643	1486.916333	564.051477
9.097594	7.341209	1367.982444	564.401146
9.090385	7.341209	1439.828222	564.401146
9.472529	6.293643	1483.032778	564.401146
9.420802	6.642875	1439.342778	564.401146
9.560555	7.690310	1458.275111	564.401146
9.697577	6.293643	1502.450556	564.401146
9.830018	7.341209	1425.750333	564.401146
9.980350	7.690310	1443.226333	564.401146
10.045828	8.737351	1370.409667	564.401146
10.309390	10.132791	1399.536333	564.401146
10.394404	12.921565	1452.935222	564.401146
10.699099	12.224635	1455.847889	564.401146
10.740457	14.314897	1383.516667	564.401146
10.800159	14.314897	1417.983222	564.750771
11.128720	14.314897	1422.837667	564.401146
11.103941	15.707523	1394.196444	564.750771
11.149486	15.707523	1358.273556	564.750771
11.210533	16.403572	1411.187000	564.750771
10.983720	18.490657	1269.922667	564.750771
11.210324	18.490657	1159.241333	564.750771
11.768172	17.445122	1377.691333	564.750771
11.811519	20.226133	1305.845556	565.100353
11.827811	20.226133	1342.739333	565.100353
12.070620	20.920942	1302.447444	565.100353
11.950716	21.268280	1216.523778	565.100353
12.271366	20.920942	1226.718111	565.100353
11.855083	23.351378	1130.114667	565.449891
12.167134	23.004306	1160.697667	565.449891
12.519092	22.657190	1183.999000	565.799385
12.742000	22.657190	1183.999000	565.799385
12.699177	24.045388	1151.474222	565.799385
12.518458	24.736096	1108.755111	565.799385
12.542981	22.310029	1168.464778	565.799385
12.346176	24.739220	1066.521444	566.148836
12.465355	24.739220	1094.677222	566.148836
12.458850	25.779634	1078.172111	566.148836
12.440104	26.126349	1051.958111	566.498243
12.610582	24.392326	1135.940000	566.148836
12.447602	25.779634	1068.463222	566.148836
12.574851	26.129651	1066.036000	567.196927
12.574051	25.779634	1025.258667	571.734101
12.526743	26.469673	1025.744111	572.082808
12.314445	26.816255	1018.462444	572.431471
