power (mW)	FWHM	peak value	peak location
-0.064401	34.122247	921.373556	540.525187
-0.102700	31.436955	951.956556	539.819951
-0.152992	57.073879	959.238222	543.696641
-0.142467	122.458057	959.238222	543.696641
-0.146817	146.196543	950.985667	539.467270
-0.111883	156.027324	938.364111	541.582722
-0.012423	147.473060	970.888889	543.696641
0.041609	137.599182	939.820444	546.864636
0.205708	153.085346	942.247667	542.992172
0.227331	141.120750	956.811000	544.400939
0.412088	145.789103	951.471111	542.639873
0.555507	117.986638	915.548222	543.344427
0.713202	159.264825	960.694556	543.344427
0.934360	145.769483	921.373556	540.172591
1.194575	147.120506	971.374333	541.935148
1.450116	111.270959	957.296444	539.467270
1.535264	156.071976	968.947111	572.780089
1.588045	149.042423	912.150111	542.639873
2.158486	162.024355	1004.870000	540.525187
2.235102	145.745905	949.529333	544.048811
2.905338	110.224692	936.907778	543.344427
3.228672	140.936562	959.723667	540.172591
3.351091	131.310695	972.830667	545.105066
3.684187	130.664420	1018.947889	539.114546
4.101293	140.989186	1118.464000	540.877741
4.404968	140.430083	1165.066667	539.467270
4.750550	64.154874	1299.534778	546.512808
5.161855	42.107146	1492.741667	563.701765
5.327752	34.828251	1662.161778	539.467270
5.733606	31.010973	1791.290000	563.352009
6.373814	30.664480	1810.222333	541.230253
6.591830	22.680012	2107.799778	540.877741
7.010085	19.200457	2293.725000	563.352009
7.604900	11.883527	2858.296889	540.525187
7.938401	13.975371	2740.819333	542.992172
8.367115	9.439869	3122.864111	563.352009
8.842156	8.392566	3459.277111	541.582722
9.264917	7.343954	3956.857667	543.344427
9.812302	6.994678	4342.786000	541.582722
10.401433	7.343954	4371.427222	540.172591
11.070026	6.994678	4972.407444	543.344427
11.710579	5.945848	5719.506444	543.344427
12.340453	6.295211	5799.119333	540.525187
12.619471	6.295211	6080.677111	545.105066
12.762131	5.945848	6652.530667	540.877741
12.988135	5.945848	6863.699000	539.114546
14.143003	5.595744	7671.478556	563.701765
14.420746	5.945848	8150.612222	538.761779
14.776873	5.945848	8346.731778	563.701765
15.349477	5.595744	8907.420111	540.877741
16.043444	5.595744	9451.603333	541.230253
16.757669	5.595744	10023.942333	542.639873
16.807780	5.595744	9943.358556	540.525187
17.968140	5.595744	9943.358556	540.525187
18.548739	5.595744	10813.275000	540.172591
18.317979	5.595744	11621.054556	538.761779
18.826767	5.595744	12205.044222	563.701765
19.819102	5.595744	13060.882778	541.230253
20.535770	5.245684	14107.986444	563.701765
21.562458	5.245684	14907.028000	563.701765
21.159731	5.595047	13169.622333	540.877741
22.421960	5.245684	15205.090889	564.051477
22.077604	5.595047	14544.886444	543.344427
24.155302	5.245684	17978.920444	541.582722
24.016018	5.595047	16730.842778	541.582722
23.726482	5.245684	16575.500556	540.877741
24.279614	5.595047	16051.706000	541.230253
24.313827	5.595047	16464.333778	539.467270
25.479418	5.595047	17286.191222	542.287532
25.654918	5.595047	17008.031556	564.051477
25.769222	5.595047	17442.989778	540.877741
25.882356	5.595047	18504.656778	564.051477
27.533478	5.595047	17144.441444	564.051477
27.394059	5.595047	17144.441444	564.051477
28.634071	5.595047	19459.040556	564.051477
28.428662	5.245030	20363.909000	540.172591
28.783996	5.595047	20364.394444	542.639873
29.618380	5.595047	20047.884667	539.819951
29.703553	5.595047	19767.297778	538.761779
29.866435	5.245030	20741.099333	564.051477
30.541125	5.245030	20501.289778	564.051477
30.564082	5.595047	19867.784778	564.051477
31.406811	5.595047	19867.784778	564.051477
32.048455	5.245030	21770.241556	564.051477
32.106756	5.245030	21770.241556	564.051477
31.729605	5.245030	20945.471444	540.172591
31.518086	5.245030	20071.186000	564.401146
32.591118	5.944367	20526.532889	539.467270
32.682726	5.594350	20046.913778	564.401146
33.424503	5.594350	20204.197778	545.105066
33.743034	5.944367	19777.977556	564.401146
34.133199	5.944367	20181.867333	542.992172
34.018476	5.944367	20378.957778	564.051477
34.159472	5.944367	20378.957778	564.051477
33.663943	5.944367	19394.961889	541.230253
34.596731	5.944367	19922.154556	564.051477
34.914482	5.944367	19922.154556	564.051477
34.843410	5.944367	19623.120778	564.051477
35.448447	5.944367	21064.405333	540.877741
35.640619	5.944367	19620.693556	564.051477
36.531578	5.944367	21114.406111	564.051477
36.054238	5.944367	20070.215111	564.051477
34.932109	5.944367	19072.626778	564.401146
35.615551	5.944367	18896.895889	564.051477
35.862156	5.944367	19076.510333	541.582722
