power (mW)	FWHM	peak value	peak location
-0.003078	130.757232	186.896111	0.000000
-0.002243	25.670721	233.013333	0.000000
-0.001610	85.365142	206.313889	0.000000
-0.000865	11.885010	155.342222	0.000000
-0.001139	614.977295	184.468889	0.000000
-0.001320	122.548356	228.158889	0.000000
0.004477	119.192859	223.304444	0.000000
0.018637	116.348442	196.605000	0.000000
0.017676	115.406402	196.605000	0.000000
0.046741	60.866076	186.896111	0.000000
0.050413	41.305767	225.731667	0.000000
0.076704	27.911998	223.304444	0.000000
0.102100	9.755771	233.013333	0.000000
0.106228	37.216553	245.149444	0.000000
0.148236	41.650189	288.839444	0.000000
0.150678	41.650189	288.839444	0.000000
0.206386	2.795082	283.985000	0.000000
0.219401	23.873810	342.238333	0.000000
0.250107	29.903081	330.102222	0.000000
0.283316	15.723263	359.228889	0.000000
0.318536	20.495447	393.210000	0.000000
0.336235	10.830248	395.637222	568.942870
0.380918	11.507295	463.599444	566.148836
0.425202	10.440711	461.172222	566.148836
0.460225	25.374865	521.852778	571.036557
0.510014	17.440737	497.580556	567.546203
0.527908	23.713343	546.125000	568.593768
0.571826	28.920400	674.767778	566.148836
0.596268	26.839973	657.777222	563.701765
0.668668	21.982176	834.964444	563.002209
0.702442	15.022578	1094.677222	562.302480
0.786051	7.696060	1325.263333	562.302480
0.793619	12.582555	1296.136667	562.302480
0.826255	9.445748	1400.507222	562.302480
0.858030	7.346697	1915.078333	561.952550
0.942576	6.298345	2434.503889	562.302480
1.003702	5.248948	3286.458889	561.952550
1.086340	5.248948	3402.965556	561.952550
1.135356	4.899322	4767.064444	561.952550
1.159894	4.899322	4507.351667	561.952550
1.174030	5.249600	4325.310000	561.952550
1.249359	4.899322	5172.410556	561.952550
1.274629	4.549654	6143.299444	561.952550
1.394695	4.549654	8002.551667	561.952550
1.454511	4.549654	8002.551667	561.952550
1.480412	4.549654	8051.096111	561.952550
1.577672	4.549654	9320.533333	561.952550
1.633727	4.549654	10638.515000	561.602576
1.721108	4.549654	11381.245000	561.602576
1.713835	4.549654	10572.980000	561.602576
1.790827	4.549654	11446.780000	561.602576
1.851362	4.549654	12194.364444	561.602576
1.871766	4.549654	12225.918333	561.602576
1.970994	4.549654	13039.037778	561.602576
2.000362	4.899931	13648.270556	561.602576
2.097547	4.899931	14619.159444	561.602576
2.122944	4.550218	14519.643333	561.602576
2.223536	4.550218	16165.300000	561.602576
2.275413	4.199941	16893.466667	561.602576
2.371724	4.550218	18094.941667	561.602576
2.362454	4.550218	17840.083333	561.602576
2.477518	4.550218	18747.864444	561.602576
2.547818	4.550218	19400.787222	561.602576
2.619556	4.550218	20148.371667	561.602576
2.734638	4.550218	21412.954444	561.602576
2.724618	4.550218	19835.260000	561.252560
2.756117	4.550218	18827.962778	561.252560
2.769116	4.550218	19485.740000	561.252560
2.922429	4.550218	21777.037778	561.252560
2.931736	4.550218	20325.558889	561.252560
2.914095	4.550218	18925.051667	561.252560
3.000515	4.550218	21750.338333	561.602576
3.043844	4.550218	20990.617778	561.602576
3.203800	4.550218	21743.056667	561.602576
3.225574	4.550218	20626.534444	561.602576
3.254784	4.550218	21027.026111	561.252560
3.272024	4.550218	21847.427222	561.252560
3.424826	4.550218	22621.711111	561.252560
3.469272	4.900539	21721.211667	561.252560
3.454783	4.550218	22153.257222	561.602576
3.531752	4.550218	21861.990556	561.602576
3.548408	4.550218	21342.565000	561.602576
3.559265	4.550218	21184.795556	561.602576
3.592594	4.899931	19954.193889	561.602576
3.602048	5.250252	20233.324444	561.602576
3.689813	4.899931	20900.810556	561.602576
3.789926	4.899931	19376.515000	561.602576
3.715694	4.899931	18442.034444	561.602576
3.886080	4.899931	18522.132778	561.602576
3.890664	4.899931	17827.947222	561.602576
3.844491	4.899931	17264.831667	561.602576
3.913630	4.899931	17509.981111	561.602576
3.874645	4.550218	19692.053889	561.252560
4.023756	4.899931	17451.727778	561.602576
3.908752	4.899931	14992.951667	561.602576
4.097177	4.899931	16995.410000	561.602576
4.174806	4.899931	15560.921667	561.602576
4.230468	4.549654	15925.005000	561.602576
4.124744	4.899931	14286.630000	561.602576
4.194358	4.899931	14281.775556	561.602576
4.269164	4.549654	14604.596111	561.602576
4.328167	4.899931	14641.004444	561.602576
4.320548	4.899931	13590.017222	561.602576
4.243979	4.549654	12706.508333	561.952550
4.333553	5.249600	11990.477778	561.952550
