power (mW)	FWHM	peak value	peak location
-0.092966	110.533037	909.237444	545.457066
-0.089873	23.094660	944.189444	544.048811
-0.081974	78.963785	933.509667	540.525187
-0.059375	39.554519	929.140667	543.344427
-0.032106	94.159467	938.849556	551.083233
0.015736	42.580418	935.451444	539.467270
0.021206	56.167147	915.548222	538.408970
0.080697	22.850255	931.567889	547.568165
0.119383	44.222950	933.995111	541.935148
0.178661	34.372780	920.402667	538.761779
0.240982	49.441190	923.800778	541.935148
0.365836	14.113469	935.936889	543.344427
0.391712	38.406637	950.985667	542.287532
0.460825	149.022606	925.257111	539.114546
0.583368	145.334918	928.655222	539.467270
0.586613	127.092722	924.286222	545.457066
0.785643	151.199786	904.868444	541.582722
0.871472	93.702956	916.519111	541.230253
0.908979	144.243640	955.354667	553.892193
1.089100	93.750183	904.868444	542.992172
1.145144	153.891960	917.004556	543.696641
1.214254	144.808459	915.548222	543.344427
1.347569	101.898669	944.189444	540.172591
1.493409	124.339377	940.305889	553.541223
1.582136	143.910884	911.664667	538.761779
1.624777	136.523204	926.713444	542.639873
1.808483	150.355102	928.655222	542.992172
2.032903	112.751992	917.004556	540.525187
2.038455	146.879239	925.257111	544.400939
2.265145	153.206978	939.335000	544.753024
2.444624	101.714623	949.529333	546.512808
2.513925	126.104609	925.257111	541.230253
2.654876	126.104609	925.257111	541.230253
2.732501	138.783238	912.150111	540.525187
2.962332	126.554442	927.684333	569.989910
3.119053	145.496009	948.073000	542.992172
3.415987	142.070529	911.179222	538.761779
3.521182	123.379543	939.820444	569.989910
3.612031	121.760893	900.984889	543.344427
3.894754	116.367253	924.771667	543.344427
3.935879	134.997695	929.140667	538.761779
4.117932	150.989936	919.917222	569.989910
4.378528	154.535544	920.402667	543.696641
4.498919	146.785453	934.966000	539.467270
4.776264	146.121648	919.917222	546.512808
4.815737	111.769204	942.247667	540.877741
5.064101	107.659273	914.577333	541.935148
5.207834	122.209470	949.529333	542.639873
5.450417	138.228074	919.431778	541.582722
5.607832	136.668807	946.616667	542.992172
5.682618	118.752694	924.771667	550.029164
5.901465	99.325728	963.121778	545.457066
6.109078	128.487373	945.645778	544.400939
6.403388	154.991950	939.820444	543.344427
6.330087	112.781547	925.742556	540.525187
6.509966	159.350234	974.287000	543.696641
6.669366	123.605855	949.529333	539.819951
6.780438	112.326188	946.616667	541.230253
7.139361	146.453385	961.180000	550.731920
7.091641	140.639579	945.160333	541.582722
7.412154	136.875161	994.675667	571.385351
7.782445	114.608753	1013.608000	540.877741
8.179535	118.313083	1040.792889	542.992172
8.077051	147.841067	1024.773222	539.114546
8.044799	116.657768	1030.113111	544.400939
8.190124	159.467726	1027.200444	571.036557
8.274523	109.339697	1050.501778	543.344427
8.680700	98.319569	1083.026556	543.344427
8.777892	111.930214	1078.172111	540.877741
8.892585	72.687136	1110.211444	543.344427
9.311994	141.902672	1064.094222	571.385351
9.245829	141.542324	1099.531667	539.467270
9.250650	63.126812	1139.823556	547.919865
9.743675	59.643365	1162.639444	538.761779
10.084858	46.592280	1225.747222	544.048811
10.033442	68.507587	1198.562333	539.467270
10.289423	47.897313	1322.350667	538.761779
10.125348	34.792964	1445.653556	542.639873
10.413673	41.369111	1329.146889	542.287532
10.380334	42.053637	1366.526111	541.935148
10.617345	32.017740	1507.305000	542.992172
11.058678	20.905118	1801.969778	571.385351
10.702101	27.502319	1650.025667	540.525187
10.838179	11.505846	2344.696667	539.114546
11.029688	10.809886	2462.659667	541.935148
11.170504	7.323754	3438.403000	541.230253
11.111893	6.626255	4044.723111	540.172591
11.075599	5.928755	4636.965333	542.287532
11.622152	5.231255	6817.096333	541.935148
11.661390	5.928755	6275.340333	540.172591
11.554210	5.580356	6403.983111	544.048811
11.578643	5.231255	8162.748333	543.344427
11.358892	5.231255	7159.820111	543.344427
11.700310	5.231255	7951.094556	539.467270
11.659323	5.231255	8318.576000	539.819951
11.799632	4.533755	12581.263667	545.105066
11.943549	4.533755	12563.787667	539.467270
11.848867	4.882812	12338.541444	541.230253
11.882073	4.882812	13584.677333	544.753024
11.782954	4.533755	16832.786111	541.582722
12.103397	4.882812	18320.673333	542.639873
12.158798	4.882812	18779.903778	546.160937
12.100697	4.534325	19558.556667	541.230253
11.881347	4.534325	20495.949889	543.696641
12.363796	4.534325	24697.471556	541.582722
