power (mW)	FWHM	peak value	peak location
-0.147588	18.467323	964.092667	543.344427
-0.146403	111.416355	921.859000	543.344427
-0.134861	68.390074	920.402667	540.525187
-0.128691	150.335083	942.733111	545.105066
-0.102422	94.424466	958.752778	546.512808
-0.070030	116.373913	937.393222	539.114546
-0.033223	73.353971	937.878667	540.525187
0.018405	73.487340	954.869222	540.877741
0.027233	52.279896	976.228778	545.105066
0.057313	24.415740	957.296444	539.819951
0.103444	40.586387	921.373556	547.216422
0.166695	163.305695	933.995111	540.172591
0.218311	116.074890	947.102111	542.992172
0.292440	111.988100	925.742556	541.582722
0.352449	137.579203	920.402667	541.935148
0.427118	143.910884	973.316111	548.271522
0.524492	82.571949	945.645778	541.230253
0.607096	59.091622	967.005333	541.935148
0.678288	147.708947	882.538000	545.105066
0.794190	130.957632	952.927444	544.048811
0.873526	157.733052	951.471111	542.992172
1.029433	137.302321	915.548222	540.525187
1.053929	90.020699	948.073000	539.467270
1.108134	154.534654	934.480556	538.761779
1.384477	55.902910	963.607222	544.400939
1.434473	28.470405	911.664667	542.287532
1.634595	20.499524	941.276778	540.877741
1.646628	150.647960	967.490778	541.230253
1.958392	161.339824	960.694556	546.864636
2.039612	153.309421	967.976222	545.809023
2.182698	128.295023	990.792111	539.467270
2.397589	145.687939	929.140667	539.819951
2.367380	125.752823	982.054111	539.114546
2.570142	149.731408	944.189444	539.467270
2.840385	12.128335	959.723667	542.639873
2.898448	36.920767	950.985667	539.114546
3.005071	8.046349	945.160333	542.992172
3.149354	93.469220	940.791333	547.919865
3.257684	152.895166	943.218556	541.230253
3.571896	71.537964	965.063556	539.114546
3.700511	131.846476	924.771667	542.287532
3.870241	81.578417	975.257889	547.216422
4.146293	135.296039	924.286222	539.819951
4.382989	111.282610	950.500222	542.992172
4.382958	33.202567	970.888889	553.190211
4.705380	139.301814	964.092667	541.935148
4.712698	143.760901	964.092667	543.696641
4.904475	81.991858	951.471111	564.750771
5.233257	136.061505	943.704000	542.992172
5.445974	129.966936	915.062778	544.048811
5.479948	116.179392	958.267333	540.525187
5.780923	91.958542	948.558444	542.639873
5.981299	153.271408	955.354667	539.467270
6.022892	144.314420	967.490778	547.568165
6.248293	46.621899	1104.871556	541.230253
6.423756	8.016202	1429.148444	539.114546
6.706582	6.970172	1574.296333	541.582722
6.941269	6.622082	1717.502444	544.048811
6.984422	5.925021	2169.451222	545.457066
7.218837	5.227961	2553.923222	546.512808
7.207275	4.879122	3060.241778	544.400939
7.539899	4.879122	3584.521778	542.287532
7.857674	4.879122	4149.579111	542.639873
8.057409	4.879122	4870.464111	541.230253
8.362759	4.530328	5751.060333	540.877741
8.487475	3.833355	6587.966556	539.819951
8.499327	4.530328	6950.593556	546.864636
8.715479	4.530328	7412.251222	541.230253
8.882408	4.182105	8057.892333	542.639873
9.205039	4.182105	8618.580667	539.467270
9.121174	4.182105	9685.102111	546.512808
9.306158	4.182105	10040.447444	552.488057
9.413570	4.181578	11053.570000	542.992172
9.456535	4.181578	11747.270111	542.639873
9.813106	3.833355	12935.152667	545.809023
9.897054	3.833355	14212.842444	542.639873
10.252174	3.833355	14390.029667	544.400939
10.396318	3.833355	15126.448889	540.525187
10.612800	3.833355	15612.864222	549.326236
10.522221	3.833355	15775.973556	542.639873
10.582703	3.485088	17139.101556	544.400939
10.885292	3.485088	18879.419889	539.114546
11.090025	4.182105	18297.857444	543.696641
10.744561	4.182105	18297.857444	543.696641
10.968022	4.182105	18984.761333	540.877741
10.977577	3.833355	19902.736778	540.877741
11.003770	4.182105	18788.641778	543.344427
10.944780	4.182105	18869.711000	542.992172
11.641046	4.182105	19556.614889	543.696641
11.785586	4.530328	20677.506111	543.344427
11.544323	4.181578	21230.427333	543.344427
11.775627	4.530328	21390.138556	540.172591
11.891759	3.833355	22835.306667	541.582722
11.837635	3.833355	22606.662333	552.136916
11.973397	3.833355	23917.847778	543.696641
11.962967	4.182105	23899.886333	539.819951
11.491602	3.833355	24239.697444	545.457066
11.908694	4.182105	24604.266222	542.639873
11.993101	3.833355	26110.114889	543.344427
12.046885	3.833355	24103.287556	548.623136
12.135968	3.833355	25880.499667	544.048811
12.223755	3.833355	27035.372000	541.935148
12.068207	3.833355	27398.484444	541.582722
12.169697	3.833355	26413.032222	546.864636
11.950472	3.833355	27104.790556	573.477195
