power (mW)	FWHM	peak value	peak location
-1.265927	161.714603	775.740222	539.114546
-1.314371	93.433951	783.021889	543.696641
-1.259527	121.829051	801.468778	542.639873
-1.132408	19.075487	750.497111	545.105066
-0.932527	126.523506	898.072222	543.344427
-0.957330	157.959399	882.052556	540.877741
-0.719136	152.189675	832.051778	539.467270
-0.315473	129.022798	822.342889	542.639873
-0.216487	139.112515	862.149333	542.287532
0.145445	117.884560	855.353111	542.992172
0.530479	161.714603	848.071444	544.048811
0.818627	135.457740	855.838556	538.408970
1.438023	149.236469	916.033667	548.271522
1.799364	117.608102	962.150889	540.172591
2.478062	145.161056	1041.278333	540.525187
3.060235	80.206922	1127.202000	542.639873
3.712449	65.381311	1251.475778	573.128664
4.266351	60.554504	1331.574111	544.048811
5.009517	57.823974	1403.419889	542.992172
5.733938	50.925818	1537.402556	542.287532
6.354621	48.166961	1635.462333	542.287532
7.115393	44.037245	1750.512667	542.639873
8.127211	40.935056	1871.388333	543.344427
9.096811	38.863679	2006.827333	541.230253
10.342281	38.858695	2109.256111	544.048811
10.504319	37.825158	2135.955556	543.344427
12.035246	36.097066	2296.152222	538.408970
12.515062	35.407452	2417.027889	542.639873
14.367378	34.713213	2592.273333	542.287532
15.044477	32.983943	2667.031778	544.753024
16.364516	32.638842	2785.480222	539.467270
16.191080	31.599229	2778.684000	540.525187
17.747496	31.253993	3018.979000	544.048811
19.065090	29.864965	3185.486444	539.114546
20.578705	28.483210	3427.723222	543.344427
21.641566	27.784964	3573.842000	544.400939
23.108264	28.479572	3651.027667	540.525187
24.519095	26.399118	3921.905667	543.344427
24.677879	26.402490	3812.195222	547.216422
25.397768	26.053432	4134.530333	541.582722
28.685584	25.012912	4662.208444	538.761779
29.623051	23.972256	4727.743444	539.467270
31.840090	24.318121	4951.047889	543.344427
32.445642	23.623330	5186.973889	542.287532
34.645289	23.277419	5438.434111	541.230253
34.667433	22.928537	5511.250778	543.696641
36.132666	23.623330	5638.437222	538.056118
37.572893	22.582582	6073.880889	545.457066
39.375866	22.233743	6234.077556	540.877741
41.146559	22.579699	5750.089444	544.048811
41.116025	21.884949	6535.053111	543.344427
44.322060	21.884949	6921.952333	544.048811
44.661722	21.884949	6931.175778	543.696641
45.159781	21.884949	6987.972778	539.819951
47.975554	21.190198	7539.437667	541.935148
48.916694	20.844153	7673.905778	544.753024
50.244230	20.841492	7878.277889	543.344427
51.985114	21.190198	8061.775889	542.639873
54.511927	20.841492	8311.294333	581.481238
54.799613	20.841492	8269.060667	542.639873
56.567589	20.841492	8650.134556	543.344427
57.991056	20.492829	8687.028333	540.877741
58.767195	20.841492	9045.286333	541.582722
60.378256	20.838829	9187.521556	582.176136
61.205872	20.838829	9453.545111	582.176136
63.702642	20.490210	9649.664667	542.287532
65.515317	21.184785	9439.952667	541.582722
67.156308	21.184785	9439.952667	541.582722
66.684025	20.490210	9797.239778	539.114546
68.257465	20.141636	10190.935222	543.344427
70.726749	20.141636	10434.628333	541.582722
70.749079	20.139060	10292.393111	546.160937
72.009980	19.793105	10627.349778	583.218151
73.865073	19.793105	11191.436222	545.105066
74.130559	19.444618	10984.151444	539.819951
76.062105	20.139060	10949.684889	541.582722
76.908424	20.139060	11175.416556	542.992172
75.911020	19.790573	11259.398444	584.259766
78.187214	19.790573	11353.574667	583.912605
81.629357	19.790573	12016.691778	541.582722
81.180002	19.442130	12050.187444	539.467270
81.087141	18.747776	12515.728667	584.259766
82.357981	19.788041	12362.328222	584.953954
84.450138	18.745377	12768.159778	542.639873
85.485625	19.439642	12699.226667	547.919865
85.965155	19.439642	12955.055889	541.230253
86.855914	18.745377	13404.092000	540.877741
88.270449	19.091287	13722.058111	542.287532
86.931207	18.742976	13423.509778	545.105066
88.426581	18.742976	13480.306778	539.467270
90.272818	18.048799	14222.551333	540.877741
90.904043	19.091287	14087.112333	585.647964
92.057130	18.742976	14407.991111	541.935148
92.112755	18.742976	14721.588222	539.114546
90.102039	19.088842	12780.295889	539.467270
92.396792	19.088842	14274.493889	538.761779
92.128808	18.740575	14600.712556	545.105066
92.509093	18.046487	14899.260889	544.048811
93.237954	18.046487	15123.536222	585.994902
94.119010	18.044174	15071.108222	542.992172
93.908650	18.044174	15071.108222	542.992172
92.623002	18.392353	14519.643333	542.992172
91.534971	18.738173	14616.246778	541.582722
92.923794	18.392353	14638.577222	586.688646
90.307014	18.044174	14065.752778	543.344427
