power (mW)	FWHM	peak value	peak location
75.398467	4.196286	10068.117778	564.051477
75.299450	4.545693	8051.096111	564.051477
75.836142	4.196286	9788.987222	564.051477
76.688972	4.545693	9784.132778	564.051477
74.526347	4.196286	10495.308889	564.051477
74.522919	4.196286	10495.308889	564.051477
74.339192	3.846835	10505.017778	564.051477
74.990909	4.196286	9449.176111	564.051477
75.421343	4.196286	12029.313333	564.051477
74.862956	4.196286	12029.313333	564.051477
74.744428	4.196286	8585.085000	564.051477
74.910192	4.196286	9342.378333	564.051477
74.091915	4.545693	9102.083333	564.051477
74.375235	4.196286	10895.800556	564.051477
73.692022	4.895667	9534.128889	564.051477
73.759939	4.895667	9534.128889	564.051477
73.967141	4.196286	13133.699444	564.051477
73.937362	4.196286	12679.808889	564.051477
73.178578	4.196286	12679.808889	564.051477
74.419117	4.196286	9415.195000	564.051477
73.983945	4.196286	9415.195000	564.051477
72.943745	4.546260	9473.448333	564.051477
73.803053	4.546260	8854.506667	564.051477
73.542632	4.196286	6468.547222	564.051477
74.152212	4.546260	7449.145000	563.701765
74.616203	4.895667	7701.576111	564.051477
74.525230	4.196286	7643.322778	564.051477
75.306691	4.895667	7558.370000	564.051477
75.376727	4.196286	7403.027778	563.701765
74.998569	4.196286	9400.631667	564.051477
73.454116	4.196286	10529.290000	564.051477
74.999325	4.546260	11184.640000	564.051477
73.928601	4.546260	12575.438333	564.051477
74.785232	4.196286	10927.354444	564.051477
75.321004	4.196286	10094.817222	564.051477
75.662899	4.895667	10383.656667	564.051477
75.657363	4.895667	8886.060556	564.051477
76.034758	3.846356	11839.990000	564.051477
75.372710	4.196286	10466.182222	564.051477
75.186120	4.196286	10466.182222	564.051477
74.011396	4.545693	10320.548889	564.051477
74.052427	4.545693	12655.536667	564.051477
74.750913	4.196286	9922.484444	564.051477
74.764265	4.196286	9706.461667	564.051477
77.211182	4.895667	9798.696111	564.051477
76.931080	4.546260	11488.042778	564.051477
76.854200	4.546260	8890.915000	563.701765
76.304918	4.196286	9546.265000	564.051477
75.627002	4.196286	8126.340000	564.051477
75.386238	4.196286	9742.870000	564.051477
73.586695	4.196286	7085.061667	564.051477
75.479527	4.546260	9337.523889	564.051477
75.066666	4.196286	6861.757222	564.051477
74.614317	4.196286	6861.757222	564.051477
73.301472	3.846835	9274.416111	563.701765
73.714554	4.546260	8218.574444	563.701765
73.796941	4.196286	8298.672778	564.051477
