power (mW)	FWHM	peak value	peak location
73.804770	6.297562	1871.388333	563.002209
73.667598	4.896886	2827.713889	563.002209
72.969688	5.597137	2080.129444	563.352009
74.651110	5.597137	2080.129444	563.352009
73.288317	5.247643	3919.963889	562.652366
73.058618	5.946588	1691.773889	563.002209
73.672563	5.946588	1691.773889	563.002209
72.106731	5.947328	2932.084444	563.002209
72.491186	5.246990	3633.551667	563.352009
72.338543	4.897496	3643.260556	563.002209
72.584668	5.597137	3388.402222	563.002209
73.257758	6.296779	2512.175000	563.002209
73.232979	4.546826	3852.001667	563.352009
73.247676	4.546826	3852.001667	563.352009
73.100347	5.946588	2419.940556	563.352009
74.583764	5.597137	3004.901111	563.002209
74.053585	5.946588	2594.700556	563.002209
72.390033	5.947328	2182.072778	563.002209
72.277890	5.246990	2150.518889	563.352009
73.006895	4.896886	3638.406111	563.352009
73.503901	5.246990	2541.301667	563.352009
74.239570	5.246990	2973.347222	563.002209
74.099941	4.896886	2861.695000	563.352009
72.982098	5.946588	1873.815556	563.002209
72.951557	5.946588	3335.003333	563.002209
71.988633	5.246990	3356.848333	563.352009
73.590694	5.246990	3109.271667	563.352009
73.381414	5.946588	2932.084444	563.002209
74.326759	5.946588	3026.746111	563.002209
74.189407	5.947328	4383.563333	563.002209
75.002975	4.896886	3165.097778	563.352009
74.210041	4.896886	3332.576111	563.352009
73.345139	5.246990	3650.542222	563.352009
73.547423	5.947328	4541.332778	563.002209
74.216316	5.246990	3524.326667	563.002209
74.192474	5.246990	3524.326667	563.002209
73.273800	4.547392	4230.648333	563.352009
74.142462	4.896886	4801.045556	563.352009
74.239017	5.597137	4643.276111	563.002209
75.994490	5.246990	3536.462778	563.352009
73.422049	5.246990	4206.376111	563.002209
72.393857	5.597137	4558.323333	563.002209
72.326930	5.946588	3325.294444	563.002209
73.140819	5.246990	3803.457222	563.002209
73.937187	5.246990	3803.457222	563.002209
74.323342	5.246337	3594.716111	563.352009
73.003425	5.597137	3529.181111	563.352009
72.400371	5.597137	3529.181111	563.352009
72.942406	5.597137	5128.720556	563.002209
73.340791	5.246990	4638.421667	563.352009
74.892660	5.597137	6026.792778	563.002209
74.133906	5.597137	6026.792778	563.002209
73.870801	4.546826	5696.690556	563.352009
73.296123	5.246990	4730.656111	563.352009
72.684081	4.896886	6063.201111	563.352009
74.240932	4.896886	4932.115556	563.352009
74.360735	4.896886	4932.115556	563.352009
77.039481	5.946588	3320.440000	563.002209
75.303821	5.596441	2587.418889	563.352009
