power (mW)	FWHM	peak value	peak location
74.090587	3.847793	19854.677778	563.352009
73.645275	3.847793	19854.677778	563.352009
73.634769	4.197854	19408.068889	563.002209
73.058019	4.197854	17786.684444	563.002209
74.490515	3.847793	18932.333333	563.352009
74.369722	4.197854	16633.753889	563.002209
74.303697	4.197854	13992.936111	563.002209
74.053940	4.197854	11682.220556	563.002209
74.764830	3.847793	15174.993333	563.002209
73.345931	4.197854	10075.399444	563.002209
74.293575	4.547957	6259.806111	562.652366
72.508556	4.197854	8330.226667	563.002209
73.851348	4.197854	8330.226667	563.002209
74.316311	4.547957	7315.647778	562.652366
73.977077	4.197854	7080.207222	563.002209
74.915367	4.547957	5946.694444	563.002209
76.252472	4.197854	4849.590000	563.002209
74.302545	4.897496	6339.904444	563.002209
74.641785	4.897496	6339.904444	563.002209
74.304285	4.897496	6288.932778	563.002209
75.428979	3.848272	7694.294444	563.002209
75.598003	4.547957	7048.653333	563.002209
75.778906	4.197854	7087.488889	563.002209
75.223861	4.197854	6150.581111	563.002209
74.380962	4.547392	7713.712222	563.352009
74.682425	4.547392	8184.593333	563.002209
73.562650	4.547392	8237.992222	563.002209
73.529856	4.197854	7458.853889	563.002209
73.449337	4.547392	7767.111111	563.002209
74.582238	4.547392	7767.111111	563.002209
72.842435	4.547392	7941.871111	563.352009
72.224473	3.848272	6184.562222	563.002209
74.158894	4.197854	7143.315000	563.002209
74.207166	4.547957	4635.994444	563.002209
73.138741	4.197854	5140.856667	563.002209
74.139808	4.897496	6412.721111	563.002209
73.511159	4.547392	6849.621111	563.002209
73.138520	4.547392	6849.621111	563.002209
72.823739	4.897496	4604.440556	563.002209
72.331470	4.198376	5844.751111	562.652366
73.559990	4.197854	5650.573333	563.002209
73.704793	4.197854	8631.202222	563.002209
73.902845	4.547392	7017.099444	563.002209
73.906069	4.547957	11422.507778	563.002209
74.713700	4.547957	8946.741111	563.002209
74.771728	4.547392	11662.802778	563.002209
73.708425	4.197854	10206.469444	563.002209
75.482595	4.197854	10206.469444	563.002209
75.756753	3.848272	8757.417778	563.002209
74.640621	4.547392	11043.861111	563.002209
74.821681	4.197854	9080.238333	563.002209
76.918508	4.197854	9080.238333	563.002209
75.517898	4.897496	9679.762222	563.002209
75.358577	4.547392	10543.853333	563.002209
