power (mW)	FWHM	peak value	peak location
74.555154	3.848272	4245.211667	563.002209
75.639418	4.197854	4699.102222	563.002209
75.023924	4.197854	5434.550556	563.002209
75.174286	4.547957	4570.459444	563.002209
75.219123	4.547957	4570.459444	563.002209
75.134396	4.197854	4614.149444	563.002209
75.338164	3.848272	4803.472778	563.002209
74.500800	4.197854	5689.408889	563.002209
74.417784	3.848272	6449.129444	563.002209
74.444525	3.848272	6487.965000	563.002209
75.251935	4.197854	5779.216111	563.002209
74.719830	4.197854	4992.796111	563.002209
74.354833	3.848272	5352.025000	563.002209
73.929934	3.847793	3900.546111	563.352009
74.952381	4.547957	6429.711667	563.002209
74.343575	4.547957	6429.711667	563.002209
73.361961	4.197854	5856.887222	563.002209
73.177071	4.197854	5856.887222	563.002209
73.454302	4.197854	5543.775556	563.002209
74.591977	4.197854	5543.775556	563.002209
75.216050	4.547957	4048.606667	563.002209
75.011374	4.197854	3711.222778	563.002209
74.796908	4.197854	3936.954444	563.002209
74.686616	4.897496	3963.653889	563.002209
76.065090	4.547957	4915.125000	563.002209
76.279923	4.197854	4645.703333	563.002209
76.070818	4.547392	4827.745000	563.002209
75.439876	3.847793	6536.509444	563.002209
73.923846	3.847793	6536.509444	563.002209
74.925117	4.547392	6111.745556	563.002209
76.327036	4.197854	6728.260000	563.002209
75.254415	4.897496	5271.926667	563.002209
75.684633	4.547392	6657.870556	563.352009
74.411498	4.197854	6420.002778	563.002209
74.381719	4.197854	5174.837778	563.002209
74.464531	4.197854	5446.686667	563.002209
74.368977	4.897496	4565.605000	563.002209
75.525901	4.547957	3757.340000	563.002209
75.295055	4.197854	3160.243333	563.002209
74.445840	3.498212	3968.508333	563.002209
73.011103	3.498212	3968.508333	563.002209
73.113711	3.498212	1995.176667	563.002209
73.862053	4.197854	2825.286667	563.002209
73.607703	4.197854	2825.286667	563.002209
73.989277	4.197854	3890.837222	563.002209
73.881279	4.547957	4832.599444	563.002209
74.071501	4.197854	5742.807778	563.002209
74.243202	4.197854	4963.669444	563.002209
74.722496	4.197854	5585.038333	563.002209
75.450912	4.197854	5886.013889	563.002209
75.450912	3.848272	7881.190556	563.002209
74.389181	4.197854	5228.236667	563.002209
73.664356	4.197854	6315.632222	563.002209
74.346253	4.197854	5638.437222	563.002209
74.974529	4.197854	5638.437222	563.002209
73.492457	4.197854	5427.268889	563.002209
73.847326	4.197854	4012.198333	563.002209
74.026460	4.197854	4012.198333	563.002209
