power (mW)	FWHM	peak value	peak location
74.665423	3.848272	5582.611111	563.002209
73.160249	3.848272	5582.611111	563.002209
73.809736	4.547957	4924.833889	562.652366
73.020649	4.198376	5024.350000	562.652366
73.364435	4.198376	5043.767778	562.652366
72.950608	4.198376	4434.535000	562.652366
73.943270	4.197854	6890.883889	563.002209
75.080601	3.848751	6068.055556	562.652366
74.643077	4.547957	5602.028889	563.002209
73.868327	4.547957	6475.828889	562.652366
73.462096	3.498647	6407.866667	562.652366
74.938842	4.198376	6849.621111	562.652366
75.545377	3.498647	5546.202778	562.652366
75.977290	3.848272	6653.016111	563.002209
73.978805	3.498647	6995.254444	562.652366
73.923986	3.848751	6820.494444	562.652366
73.851721	4.547957	5335.034444	563.002209
74.154482	4.547957	4835.026667	563.002209
74.293412	3.848272	5706.399444	563.002209
75.950794	4.198376	2468.485000	562.652366
75.862481	4.547957	5106.875556	563.002209
74.330787	4.198376	7687.012778	562.652366
73.507527	4.198376	7687.012778	562.652366
73.487888	4.198376	7322.929444	562.652366
73.706335	4.198376	9058.393333	563.002209
73.620834	4.198376	7941.871111	562.652366
74.562978	4.198376	5708.826667	562.652366
74.294751	4.198376	5708.826667	562.652366
73.622953	3.848751	5725.817222	562.652366
73.492061	4.198376	6422.430000	562.652366
73.795259	4.547957	6898.165556	562.652366
75.071811	4.547957	6051.065000	563.002209
75.101788	3.848751	7104.479444	562.652366
75.353240	4.547957	6623.889444	562.652366
75.035216	3.848272	8716.155000	562.652366
76.244824	4.198376	7572.933333	562.652366
75.136899	3.848272	9764.715000	563.002209
74.308645	4.547957	6189.416667	562.652366
73.557143	4.197854	5026.777222	563.002209
74.028195	4.197854	5026.777222	563.002209
72.240277	4.198376	5987.957222	562.652366
72.984374	4.898105	3808.311667	562.652366
72.444434	3.498647	5735.526111	562.652366
74.446219	3.498647	7075.352778	562.652366
74.539718	3.498647	5354.452222	562.652366
73.021196	4.547957	6924.865000	563.002209
73.055708	4.547957	6924.865000	563.002209
73.552161	4.547957	3944.236111	563.002209
72.331505	4.547957	4140.841111	562.652366
72.697416	4.547957	4342.300556	563.002209
72.277110	4.198376	4080.160556	563.002209
73.710340	4.198376	4592.304444	562.652366
74.578991	4.547957	4699.102222	563.002209
72.348054	4.898105	3080.145000	562.652366
74.247608	4.198376	3679.668889	563.002209
