power (mW)	FWHM	peak value	peak location
75.860356	3.496905	21597.423333	564.051477
75.202907	3.496905	21597.423333	564.051477
75.281697	3.846835	15191.983889	564.051477
75.110939	4.196809	16429.867222	564.051477
75.271394	3.846835	16138.600556	564.051477
75.819338	3.846835	18201.739444	564.051477
76.112023	3.846835	18201.739444	564.051477
76.157606	4.196809	14997.806111	563.701765
76.458120	3.846835	18085.232778	564.051477
78.179414	3.846835	17985.716667	564.051477
77.644089	4.196286	16662.880556	564.051477
78.034797	3.846835	18073.096667	564.051477
77.285955	4.196286	15439.560556	564.051477
77.888853	4.546260	15956.558889	564.051477
77.358272	4.546260	15956.558889	564.051477
76.197309	3.846835	18211.448333	564.051477
76.462515	3.496905	16488.120556	564.051477
76.516706	3.496905	16488.120556	564.051477
74.832374	4.196286	13437.102222	564.051477
74.865203	3.496470	16614.336111	564.401146
76.572382	4.196286	11094.832778	564.051477
76.366932	3.846356	13422.538889	564.051477
77.038328	3.846356	13422.538889	564.051477
75.504376	4.546260	9839.958889	564.051477
75.543264	3.846356	13779.340556	564.401146
75.716683	4.546260	9704.034444	564.051477
74.954872	4.545693	11924.942778	564.051477
74.869592	4.196286	10796.284444	564.051477
74.608024	4.895667	9672.480556	564.051477
75.020868	4.895667	9672.480556	564.051477
74.806064	3.846356	10150.643333	564.051477
75.337227	4.895057	5356.879444	564.401146
76.770439	4.895057	5356.879444	564.401146
75.324072	4.895057	5653.000556	564.401146
76.120242	3.846356	8242.846667	564.401146
75.786171	4.195763	8119.058333	564.401146
76.206867	4.545127	7322.929444	564.401146
76.156302	4.195763	9956.465556	564.401146
76.698157	3.845877	9616.654444	564.401146
76.246727	4.895057	9551.119444	564.401146
75.804279	4.545127	10682.205000	564.401146
75.893360	4.545693	9745.297222	564.401146
74.882561	4.545693	9755.006111	564.401146
73.761458	4.195240	8182.166111	564.401146
74.408628	4.195240	8182.166111	564.401146
74.378291	4.895667	6519.518889	564.051477
75.853319	4.895667	7089.916111	564.051477
76.685735	3.845877	8000.124444	564.401146
76.359476	4.895057	7679.731111	564.401146
76.375116	4.545127	7968.570556	564.401146
76.683838	4.895057	8407.897778	564.401146
76.732074	4.545693	9223.444444	564.401146
77.906047	4.545693	10961.335556	564.401146
76.676195	3.845877	9369.077778	564.401146
78.055990	5.245030	5237.945556	564.401146
75.775856	4.545693	6568.063333	564.401146
76.747174	4.895057	6441.847778	564.401146
76.308910	4.545127	6364.176667	564.401146
75.418875	4.545127	6364.176667	564.401146
