power (mW)	FWHM	peak value	peak location
11.917373	15.701609	4822.890556	567.895435
11.888833	10.473673	5803.488333	541.582722
12.083557	6.984205	8070.513889	539.819951
12.475523	6.985079	8288.963889	542.992172
12.154925	6.286572	9883.648889	567.546203
11.601159	6.985079	8725.863889	540.172591
12.014440	5.937690	10128.798333	540.877741
12.544425	5.938433	10941.917778	539.819951
11.782697	6.986827	11230.757222	566.847607
12.037944	5.589463	11983.196111	539.819951
12.002297	5.589463	12344.852222	566.847607
11.014060	5.589463	13206.516111	538.761779
11.931008	6.288932	11529.305556	545.105066
12.040471	4.541724	14963.825000	566.498243
11.913293	5.241105	15543.931111	544.048811
12.510397	5.590861	14837.609444	541.582722
11.862848	5.590861	18808.545000	539.819951
11.660697	5.241760	16927.447778	566.148836
11.998153	5.241760	14929.843889	540.877741
12.376718	4.892004	14980.815556	541.230253
11.938995	5.940660	14599.741667	566.148836
11.854803	5.241760	13796.331111	540.525187
12.296391	5.591559	13866.720556	565.799385
12.157597	5.941402	14165.268889	565.799385
11.552292	4.892615	14716.248333	543.344427
11.716069	6.990320	12303.589444	542.639873
12.496696	5.592257	14810.910000	539.114546
11.641836	6.291289	12626.410000	565.449891
12.653704	5.592257	12725.926111	541.935148
12.113700	6.292074	13373.994444	541.230253
12.158234	6.292074	12616.701111	565.100353
11.948915	5.592257	12077.857778	565.449891
11.818707	6.991192	11415.226111	544.048811
11.900018	6.292074	12213.782222	541.582722
11.671421	5.243723	13611.862222	564.750771
11.868668	6.642047	12204.073333	543.344427
11.354637	6.642047	10636.087778	542.287532
12.119350	5.943626	13684.678889	540.525187
12.014632	5.593653	12791.461111	541.582722
12.058172	7.691269	11194.348889	564.401146
12.079179	6.642875	11483.188333	541.935148
12.007642	7.342124	11306.001111	539.467270
11.572704	6.643703	12876.413889	564.401146
11.272575	6.643703	11898.243333	543.344427
11.725436	6.293643	11694.356667	564.401146
12.202398	6.642875	10063.263333	564.401146
12.920212	7.343040	11485.615556	543.344427
11.896089	7.343954	13179.816667	544.048811
12.096721	5.944367	12087.566667	542.287532
11.863329	6.992936	10170.061111	539.819951
11.433382	6.643703	10878.810000	538.408970
12.123608	6.992936	9687.043889	564.051477
11.490854	6.992936	9240.435000	564.401146
11.499331	7.342124	8849.652222	538.761779
11.829271	7.343040	9526.847222	541.230253
11.583502	7.694145	10789.002778	538.761779
12.189037	7.692228	8415.179444	564.051477
11.945332	8.042375	8995.285556	540.877741
12.052149	7.343040	9454.030556	539.819951
12.249505	8.043377	9468.593889	546.160937
12.241234	7.693187	9043.830000	539.467270
12.329557	9.089679	7917.598889	564.051477
12.108278	10.136588	7155.451111	542.992172
11.652298	8.740621	8119.058333	564.051477
12.939648	7.692228	8004.978889	539.114546
12.002170	7.692228	7917.598889	542.287532
11.947559	8.390474	7485.553333	539.114546
12.403644	10.486778	6706.415000	541.935148
12.383207	9.089679	7274.385000	564.051477
12.259437	8.042375	7929.735000	542.992172
11.600880	7.692228	7587.496667	539.467270
11.645580	8.740621	7218.558889	545.105066
12.336175	9.788883	6886.029444	539.114546
12.055084	9.787662	6626.316667	540.525187
11.294913	10.835661	6492.819444	540.525187
11.935898	9.089679	6745.250556	564.051477
11.820865	8.740621	6883.602222	542.287532
12.087778	9.788883	6466.120000	540.525187
11.449385	11.187290	6580.199444	563.701765
11.843740	11.882044	5703.972222	540.525187
11.972643	11.882044	5941.840000	542.992172
12.112852	9.787662	5939.412778	564.051477
11.976710	9.089679	6451.556667	564.051477
11.910833	11.531853	5728.244444	541.935148
12.666033	13.626841	5458.822778	540.172591
12.749064	12.230750	5461.250000	542.992172
12.555912	11.184499	5786.497778	542.639873
12.542050	10.835661	6043.783333	564.051477
11.642973	10.488087	5801.061111	544.753024
12.089503	12.928032	5145.711111	538.408970
12.220372	15.018821	4689.393333	540.877741
11.660897	14.670466	5031.631667	539.819951
11.722220	14.670466	4759.782778	564.051477
11.982087	12.579413	4995.223333	539.114546
11.604871	13.625137	4781.627778	564.051477
12.011593	15.715399	4568.032222	543.344427
11.967618	16.065633	4514.633333	540.525187
11.696206	15.020700	4548.614444	564.051477
12.236380	18.852543	3881.128333	541.935148
12.545378	16.415910	4441.816667	564.401146
