"RawData - File_210310_100306.spc"
"Wavelength nm."	"Abs."
190.00	3.429
191.00	3.661
192.00	3.864
193.00	3.587
194.00	3.921
195.00	3.793
196.00	3.985
197.00	3.896
198.00	3.902
199.00	3.897
200.00	3.955
201.00	3.974
202.00	3.963
203.00	3.927
204.00	3.998
205.00	4.000
206.00	3.956
207.00	3.875
208.00	3.936
209.00	3.934
210.00	3.959
211.00	3.978
212.00	3.982
213.00	3.964
214.00	4.000
215.00	3.987
216.00	3.979
217.00	4.000
218.00	4.000
219.00	3.999
220.00	3.964
221.00	3.981
222.00	4.000
223.00	4.000
224.00	4.000
225.00	3.997
226.00	3.983
227.00	3.913
228.00	3.982
229.00	3.963
230.00	3.983
231.00	3.963
232.00	4.000
233.00	3.968
234.00	4.000
235.00	3.968
236.00	3.988
237.00	3.980
238.00	3.942
239.00	4.000
240.00	3.931
241.00	3.950
242.00	3.994
243.00	3.954
244.00	4.000
245.00	3.928
246.00	4.000
247.00	3.990
248.00	3.980
249.00	3.992
250.00	4.000
251.00	3.953
252.00	3.949
253.00	3.941
254.00	3.904
255.00	3.995
256.00	3.998
257.00	3.968
258.00	3.925
259.00	3.891
260.00	3.849
261.00	3.973
262.00	3.972
263.00	3.975
264.00	3.999
265.00	3.925
266.00	3.938
267.00	3.949
268.00	3.833
269.00	3.984
270.00	3.972
271.00	3.911
272.00	3.894
273.00	3.986
274.00	3.901
275.00	3.928
276.00	3.931
277.00	3.987
278.00	3.836
279.00	3.860
280.00	3.833
281.00	3.927
282.00	3.900
283.00	3.880
284.00	3.902
285.00	3.887
286.00	3.907
287.00	3.911
288.00	3.895
289.00	3.892
290.00	3.948
291.00	3.969
292.00	3.880
293.00	3.820
294.00	3.813
295.00	3.975
296.00	3.919
297.00	3.974
298.00	3.958
299.00	3.872
300.00	3.751
301.00	3.812
302.00	4.000
303.00	3.905
304.00	3.947
305.00	3.967
306.00	3.688
307.00	3.915
308.00	3.726
309.00	3.729
310.00	3.853
311.00	3.683
312.00	3.908
313.00	3.862
314.00	3.908
315.00	3.676
316.00	3.687
317.00	3.895
318.00	3.998
319.00	3.877
320.00	3.908
321.00	3.943
322.00	3.950
323.00	3.975
324.00	3.702
325.00	3.701
326.00	3.778
327.00	3.892
328.00	4.000
329.00	3.644
330.00	3.776
331.00	3.672
332.00	3.362
333.00	3.879
334.00	3.836
335.00	3.574
336.00	3.670
337.00	3.882
338.00	3.759
339.00	3.813
340.00	3.725
341.00	3.849
342.00	3.502
343.00	3.500
344.00	3.783
345.00	3.610
346.00	3.673
347.00	3.380
348.00	3.694
349.00	3.450
350.00	3.728
351.00	3.307
352.00	3.367
353.00	3.694
354.00	3.713
355.00	3.826
356.00	3.910
357.00	3.887
358.00	3.635
359.00	3.574
360.00	3.780
361.00	3.796
362.00	3.615
363.00	3.761
364.00	3.713
365.00	3.305
366.00	3.437
367.00	3.392
368.00	3.293
369.00	3.388
370.00	3.428
371.00	3.517
372.00	3.154
373.00	3.060
374.00	2.929
375.00	3.059
376.00	2.976
377.00	3.032
378.00	2.881
379.00	2.849
380.00	2.803
381.00	2.726
382.00	2.749
383.00	2.750
384.00	2.663
385.00	2.606
386.00	2.549
387.00	2.538
388.00	2.453
389.00	2.409
390.00	2.347
391.00	2.262
392.00	2.201
393.00	2.133
394.00	2.060
395.00	1.985
396.00	1.928
397.00	1.857
398.00	1.793
399.00	1.734
400.00	1.673
401.00	1.614
402.00	1.554
403.00	1.500
404.00	1.439
405.00	1.377
406.00	1.315
407.00	1.250
408.00	1.184
409.00	1.118
410.00	1.054
411.00	0.991
412.00	0.932
413.00	0.878
414.00	0.827
415.00	0.779
416.00	0.737
417.00	0.696
418.00	0.662
419.00	0.633
420.00	0.609
421.00	0.588
422.00	0.570
423.00	0.555
424.00	0.542
425.00	0.532
426.00	0.523
427.00	0.515
428.00	0.509
429.00	0.504
430.00	0.500
431.00	0.497
432.00	0.495
433.00	0.493
434.00	0.493
435.00	0.493
436.00	0.493
437.00	0.494
438.00	0.496
439.00	0.499
440.00	0.502
441.00	0.506
442.00	0.511
443.00	0.516
444.00	0.523
445.00	0.531
446.00	0.540
447.00	0.550
448.00	0.562
449.00	0.574
450.00	0.587
451.00	0.602
452.00	0.619
453.00	0.636
454.00	0.655
455.00	0.674
456.00	0.694
457.00	0.716
458.00	0.738
459.00	0.761
460.00	0.785
461.00	0.811
462.00	0.835
463.00	0.859
464.00	0.886
465.00	0.913
466.00	0.942
467.00	0.972
468.00	1.005
469.00	1.038
470.00	1.075
471.00	1.113
472.00	1.154
473.00	1.201
474.00	1.252
475.00	1.304
476.00	1.365
477.00	1.432
478.00	1.504
479.00	1.577
480.00	1.653
481.00	1.735
482.00	1.822
483.00	1.917
484.00	2.011
485.00	2.105
486.00	2.200
487.00	2.293
488.00	2.382
489.00	2.465
490.00	2.542
491.00	2.607
492.00	2.662
493.00	2.716
494.00	2.757
495.00	2.790
496.00	2.826
497.00	2.850
498.00	2.863
499.00	2.877
500.00	2.890
501.00	2.898
502.00	2.919
503.00	2.931
504.00	2.935
505.00	2.934
506.00	2.952
507.00	2.946
508.00	2.953
509.00	2.961
510.00	2.973
511.00	2.970
512.00	2.973
513.00	2.980
514.00	2.981
515.00	2.982
516.00	2.980
517.00	2.976
518.00	2.985
519.00	2.983
520.00	2.978
521.00	2.983
522.00	2.985
523.00	2.972
524.00	2.991
525.00	2.977
526.00	2.973
527.00	2.986
528.00	2.979
529.00	2.967
530.00	2.974
531.00	2.965
532.00	2.973
533.00	2.970
534.00	2.980
535.00	2.974
536.00	2.897
537.00	2.811
538.00	2.819
539.00	2.817
540.00	2.809
541.00	2.811
542.00	2.819
543.00	2.817
544.00	2.806
545.00	2.810
546.00	2.812
547.00	2.812
548.00	2.803
549.00	2.803
550.00	2.790
551.00	2.771
552.00	2.739
553.00	2.676
554.00	2.577
555.00	2.429
556.00	2.258
557.00	2.061
558.00	1.859
559.00	1.671
560.00	1.494
561.00	1.331
562.00	1.183
563.00	1.053
564.00	0.936
565.00	0.829
566.00	0.736
567.00	0.656
568.00	0.584
569.00	0.523
570.00	0.469
571.00	0.421
572.00	0.381
573.00	0.346
574.00	0.315
575.00	0.288
576.00	0.266
577.00	0.246
578.00	0.229
579.00	0.214
580.00	0.201
581.00	0.190
582.00	0.181
583.00	0.172
584.00	0.165
585.00	0.159
586.00	0.153
587.00	0.148
588.00	0.144
589.00	0.140
590.00	0.137
591.00	0.134
592.00	0.131
593.00	0.129
594.00	0.127
595.00	0.125
596.00	0.124
597.00	0.122
598.00	0.121
599.00	0.120
600.00	0.119
601.00	0.118
602.00	0.117
603.00	0.116
604.00	0.115
605.00	0.114
606.00	0.114
607.00	0.113
608.00	0.113
609.00	0.112
610.00	0.112
611.00	0.111
612.00	0.111
613.00	0.110
614.00	0.110
615.00	0.109
616.00	0.109
617.00	0.109
618.00	0.108
619.00	0.108
620.00	0.107
621.00	0.107
622.00	0.107
623.00	0.106
624.00	0.106
625.00	0.106
626.00	0.105
627.00	0.105
628.00	0.105
629.00	0.104
630.00	0.104
631.00	0.104
632.00	0.103
633.00	0.103
634.00	0.102
635.00	0.102
636.00	0.101
637.00	0.101
638.00	0.100
639.00	0.100
640.00	0.100
641.00	0.099
642.00	0.099
643.00	0.099
644.00	0.099
645.00	0.098
646.00	0.098
647.00	0.098
648.00	0.098
649.00	0.098
650.00	0.097
651.00	0.097
652.00	0.097
653.00	0.097
654.00	0.096
655.00	0.096
656.00	0.096
657.00	0.096
658.00	0.095
659.00	0.095
660.00	0.095
661.00	0.095
662.00	0.094
663.00	0.094
664.00	0.094
665.00	0.094
666.00	0.093
667.00	0.093
668.00	0.093
669.00	0.093
670.00	0.093
671.00	0.092
672.00	0.092
673.00	0.092
674.00	0.092
675.00	0.092
676.00	0.092
677.00	0.092
678.00	0.091
679.00	0.091
680.00	0.091
681.00	0.091
682.00	0.091
683.00	0.091
684.00	0.091
685.00	0.091
686.00	0.091
687.00	0.090
688.00	0.090
689.00	0.090
690.00	0.090
691.00	0.090
692.00	0.090
693.00	0.090
694.00	0.090
695.00	0.090
696.00	0.090
697.00	0.090
698.00	0.090
699.00	0.089
700.00	0.089
701.00	0.089
702.00	0.089
703.00	0.089
704.00	0.089
705.00	0.089
706.00	0.089
707.00	0.089
708.00	0.089
709.00	0.089
710.00	0.089
711.00	0.089
712.00	0.089
713.00	0.089
714.00	0.089
715.00	0.089
716.00	0.089
717.00	0.089
718.00	0.089
719.00	0.089
720.00	0.089
721.00	0.089
722.00	0.089
723.00	0.089
724.00	0.089
725.00	0.089
726.00	0.089
727.00	0.089
728.00	0.089
729.00	0.089
730.00	0.089
731.00	0.089
732.00	0.089
733.00	0.089
734.00	0.089
735.00	0.089
736.00	0.089
737.00	0.089
738.00	0.089
739.00	0.088
740.00	0.088
741.00	0.088
742.00	0.088
743.00	0.088
744.00	0.088
745.00	0.088
746.00	0.088
747.00	0.088
748.00	0.088
749.00	0.088
750.00	0.088
751.00	0.088
752.00	0.088
753.00	0.088
754.00	0.088
755.00	0.088
756.00	0.088
757.00	0.088
758.00	0.088
759.00	0.088
760.00	0.085
761.00	0.084
762.00	0.084
763.00	0.084
764.00	0.084
765.00	0.084
766.00	0.084
767.00	0.084
768.00	0.084
769.00	0.084
770.00	0.084
771.00	0.084
772.00	0.084
773.00	0.084
774.00	0.084
775.00	0.084
776.00	0.084
777.00	0.084
778.00	0.084
779.00	0.084
780.00	0.084
781.00	0.084
782.00	0.084
783.00	0.084
784.00	0.084
785.00	0.084
786.00	0.084
787.00	0.084
788.00	0.084
789.00	0.084
790.00	0.084
791.00	0.084
792.00	0.084
793.00	0.084
794.00	0.084
795.00	0.084
796.00	0.084
797.00	0.084
798.00	0.084
799.00	0.084
800.00	0.084
801.00	0.084
802.00	0.084
803.00	0.084
804.00	0.084
805.00	0.084
806.00	0.084
807.00	0.084
808.00	0.084
809.00	0.084
810.00	0.084
811.00	0.084
812.00	0.084
813.00	0.084
814.00	0.084
815.00	0.084
816.00	0.084
817.00	0.084
818.00	0.084
819.00	0.084
820.00	0.084
821.00	0.084
822.00	0.084
823.00	0.084
824.00	0.084
825.00	0.084
826.00	0.084
827.00	0.084
828.00	0.084
829.00	0.084
830.00	0.084
831.00	0.084
832.00	0.084
833.00	0.084
834.00	0.084
835.00	0.084
836.00	0.084
837.00	0.085
838.00	0.084
839.00	0.084
840.00	0.085
841.00	0.084
842.00	0.084
843.00	0.085
844.00	0.085
845.00	0.085
846.00	0.085
847.00	0.085
848.00	0.085
849.00	0.085
850.00	0.085
851.00	0.085
852.00	0.085
853.00	0.085
854.00	0.085
855.00	0.085
856.00	0.085
857.00	0.085
858.00	0.085
859.00	0.085
860.00	0.085
861.00	0.085
862.00	0.086
863.00	0.086
864.00	0.086
865.00	0.086
866.00	0.086
867.00	0.086
868.00	0.086
869.00	0.086
870.00	0.086
871.00	0.086
872.00	0.086
873.00	0.086
874.00	0.086
875.00	0.086
876.00	0.086
877.00	0.086
878.00	0.086
879.00	0.086
880.00	0.086
881.00	0.086
882.00	0.086
883.00	0.086
884.00	0.086
885.00	0.087
886.00	0.087
887.00	0.087
888.00	0.087
889.00	0.087
890.00	0.087
891.00	0.087
892.00	0.087
893.00	0.088
894.00	0.088
895.00	0.088
896.00	0.088
897.00	0.088
898.00	0.088
899.00	0.088
900.00	0.088
901.00	0.088
902.00	0.088
903.00	0.088
904.00	0.088
905.00	0.088
906.00	0.088
907.00	0.088
908.00	0.088
909.00	0.088
910.00	0.088
911.00	0.088
912.00	0.088
913.00	0.088
914.00	0.088
915.00	0.088
916.00	0.088
917.00	0.088
918.00	0.088
919.00	0.088
920.00	0.088
921.00	0.087
922.00	0.087
923.00	0.087
924.00	0.087
925.00	0.087
926.00	0.087
927.00	0.087
928.00	0.087
929.00	0.087
930.00	0.087
931.00	0.087
932.00	0.087
933.00	0.087
934.00	0.087
935.00	0.087
936.00	0.087
937.00	0.087
938.00	0.087
939.00	0.087
940.00	0.087
941.00	0.087
942.00	0.087
943.00	0.087
944.00	0.087
945.00	0.087
946.00	0.087
947.00	0.087
948.00	0.087
949.00	0.087
950.00	0.087
951.00	0.087
952.00	0.087
953.00	0.087
954.00	0.087
955.00	0.087
956.00	0.087
957.00	0.087
958.00	0.087
959.00	0.087
960.00	0.087
961.00	0.087
962.00	0.087
963.00	0.088
964.00	0.088
965.00	0.088
966.00	0.088
967.00	0.088
968.00	0.088
969.00	0.088
970.00	0.088
971.00	0.088
972.00	0.089
973.00	0.088
974.00	0.089
975.00	0.089
976.00	0.089
977.00	0.089
978.00	0.089
979.00	0.089
980.00	0.089
981.00	0.089
982.00	0.089
983.00	0.089
984.00	0.089
985.00	0.089
986.00	0.090
987.00	0.089
988.00	0.090
989.00	0.090
990.00	0.090
991.00	0.090
992.00	0.090
993.00	0.090
994.00	0.090
995.00	0.090
996.00	0.090
997.00	0.090
998.00	0.090
999.00	0.090
1000.00	0.090
1001.00	0.090
1002.00	0.090
1003.00	0.090
1004.00	0.090
1005.00	0.090
1006.00	0.090
1007.00	0.090
1008.00	0.090
1009.00	0.090
1010.00	0.090
1011.00	0.090
1012.00	0.090
1013.00	0.090
1014.00	0.090
1015.00	0.090
1016.00	0.090
1017.00	0.090
1018.00	0.090
1019.00	0.090
1020.00	0.090
1021.00	0.090
1022.00	0.090
1023.00	0.090
1024.00	0.090
1025.00	0.090
1026.00	0.090
1027.00	0.090
1028.00	0.090
1029.00	0.090
1030.00	0.090
1031.00	0.090
1032.00	0.090
1033.00	0.090
1034.00	0.090
1035.00	0.090
1036.00	0.090
1037.00	0.090
1038.00	0.090
1039.00	0.090
1040.00	0.090
1041.00	0.089
1042.00	0.089
1043.00	0.089
1044.00	0.089
1045.00	0.089
1046.00	0.089
1047.00	0.089
1048.00	0.089
1049.00	0.089
1050.00	0.089
1051.00	0.089
1052.00	0.089
1053.00	0.089
1054.00	0.089
1055.00	0.089
1056.00	0.089
1057.00	0.089
1058.00	0.089
1059.00	0.089
1060.00	0.088
1061.00	0.088
1062.00	0.088
1063.00	0.088
1064.00	0.088
1065.00	0.088
1066.00	0.088
1067.00	0.088
1068.00	0.088
1069.00	0.088
1070.00	0.088
1071.00	0.088
1072.00	0.088
1073.00	0.088
1074.00	0.088
1075.00	0.088
1076.00	0.088
1077.00	0.088
1078.00	0.088
1079.00	0.088
1080.00	0.088
1081.00	0.088
1082.00	0.088
1083.00	0.088
1084.00	0.088
1085.00	0.088
1086.00	0.088
1087.00	0.088
1088.00	0.088
1089.00	0.089
1090.00	0.089
1091.00	0.089
1092.00	0.088
1093.00	0.088
1094.00	0.088
1095.00	0.088
1096.00	0.088
1097.00	0.088
1098.00	0.088
1099.00	0.088
1100.00	0.089
