"RawData - File_210310_100708.spc"
"Wavelength nm."	"Abs."
190.00	3.230
191.00	3.621
192.00	3.962
193.00	3.964
194.00	3.879
195.00	3.840
196.00	3.937
197.00	3.973
198.00	3.750
199.00	3.853
200.00	3.953
201.00	3.968
202.00	3.952
203.00	3.924
204.00	3.913
205.00	3.912
206.00	3.891
207.00	3.896
208.00	3.974
209.00	4.000
210.00	3.959
211.00	3.932
212.00	3.999
213.00	3.976
214.00	3.976
215.00	3.980
216.00	3.954
217.00	3.976
218.00	3.941
219.00	3.944
220.00	4.000
221.00	3.951
222.00	3.889
223.00	3.893
224.00	3.952
225.00	3.885
226.00	3.964
227.00	3.923
228.00	3.988
229.00	3.981
230.00	3.990
231.00	3.990
232.00	3.946
233.00	3.957
234.00	4.000
235.00	3.949
236.00	3.973
237.00	3.986
238.00	3.975
239.00	3.896
240.00	3.924
241.00	3.976
242.00	3.901
243.00	3.810
244.00	3.864
245.00	3.825
246.00	3.936
247.00	3.971
248.00	3.948
249.00	3.940
250.00	3.886
251.00	3.909
252.00	3.876
253.00	3.826
254.00	3.934
255.00	3.902
256.00	3.821
257.00	3.838
258.00	3.922
259.00	3.864
260.00	3.865
261.00	3.827
262.00	3.837
263.00	3.859
264.00	3.920
265.00	3.905
266.00	3.932
267.00	3.741
268.00	3.940
269.00	3.876
270.00	3.902
271.00	3.932
272.00	3.905
273.00	3.808
274.00	3.761
275.00	3.816
276.00	3.878
277.00	3.923
278.00	3.811
279.00	3.819
280.00	3.710
281.00	3.717
282.00	3.850
283.00	3.769
284.00	3.825
285.00	3.887
286.00	3.911
287.00	3.599
288.00	3.791
289.00	3.843
290.00	3.954
291.00	3.883
292.00	3.997
293.00	3.906
294.00	3.884
295.00	3.945
296.00	3.864
297.00	3.672
298.00	3.846
299.00	3.922
300.00	3.940
301.00	3.913
302.00	3.786
303.00	3.800
304.00	3.686
305.00	3.923
306.00	3.886
307.00	3.865
308.00	3.901
309.00	3.819
310.00	3.789
311.00	3.714
312.00	3.925
313.00	3.846
314.00	3.926
315.00	3.924
316.00	3.778
317.00	3.574
318.00	3.577
319.00	3.763
320.00	3.890
321.00	3.908
322.00	3.989
323.00	3.764
324.00	3.856
325.00	3.872
326.00	3.749
327.00	3.689
328.00	3.456
329.00	3.738
330.00	3.894
331.00	3.791
332.00	3.705
333.00	3.811
334.00	3.696
335.00	3.856
336.00	3.850
337.00	3.748
338.00	3.408
339.00	3.614
340.00	3.728
341.00	3.603
342.00	3.804
343.00	3.816
344.00	3.717
345.00	3.654
346.00	3.544
347.00	3.837
348.00	3.509
349.00	3.489
350.00	3.720
351.00	3.531
352.00	3.554
353.00	3.391
354.00	3.542
355.00	3.503
356.00	3.598
357.00	3.558
358.00	3.545
359.00	3.590
360.00	3.565
361.00	3.619
362.00	3.903
363.00	3.747
364.00	3.686
365.00	3.661
366.00	3.646
367.00	3.793
368.00	3.844
369.00	3.734
370.00	3.347
371.00	3.757
372.00	3.552
373.00	3.680
374.00	3.616
375.00	3.571
376.00	3.600
377.00	3.403
378.00	3.585
379.00	3.540
380.00	3.739
381.00	3.549
382.00	3.836
383.00	3.688
384.00	3.827
385.00	3.655
386.00	3.546
387.00	3.571
388.00	3.854
389.00	3.825
390.00	3.390
391.00	3.547
392.00	3.657
393.00	3.750
394.00	3.644
395.00	3.611
396.00	3.805
397.00	3.490
398.00	3.825
399.00	3.613
400.00	3.436
401.00	3.474
402.00	3.299
403.00	3.188
404.00	3.049
405.00	2.919
406.00	2.716
407.00	2.524
408.00	2.318
409.00	2.118
410.00	1.915
411.00	1.714
412.00	1.523
413.00	1.353
414.00	1.188
415.00	1.037
416.00	0.913
417.00	0.794
418.00	0.699
419.00	0.621
420.00	0.558
421.00	0.506
422.00	0.464
423.00	0.431
424.00	0.404
425.00	0.383
426.00	0.367
427.00	0.355
428.00	0.345
429.00	0.339
430.00	0.335
431.00	0.333
432.00	0.332
433.00	0.333
434.00	0.336
435.00	0.339
436.00	0.344
437.00	0.350
438.00	0.357
439.00	0.366
440.00	0.375
441.00	0.386
442.00	0.398
443.00	0.411
444.00	0.427
445.00	0.444
446.00	0.463
447.00	0.484
448.00	0.507
449.00	0.532
450.00	0.559
451.00	0.589
452.00	0.623
453.00	0.657
454.00	0.695
455.00	0.734
456.00	0.775
457.00	0.818
458.00	0.863
459.00	0.909
460.00	0.958
461.00	1.009
462.00	1.058
463.00	1.107
464.00	1.158
465.00	1.211
466.00	1.262
467.00	1.315
468.00	1.369
469.00	1.426
470.00	1.483
471.00	1.545
472.00	1.607
473.00	1.678
474.00	1.752
475.00	1.829
476.00	1.912
477.00	2.004
478.00	2.103
479.00	2.201
480.00	2.300
481.00	2.402
482.00	2.500
483.00	2.587
484.00	2.670
485.00	2.738
486.00	2.779
487.00	2.820
488.00	2.843
489.00	2.871
490.00	2.876
491.00	2.875
492.00	2.881
493.00	2.900
494.00	2.904
495.00	2.898
496.00	2.901
497.00	2.902
498.00	2.906
499.00	2.899
500.00	2.902
501.00	2.894
502.00	2.896
503.00	2.893
504.00	2.906
505.00	2.907
506.00	2.899
507.00	2.896
508.00	2.896
509.00	2.898
510.00	2.904
511.00	2.910
512.00	2.900
513.00	2.907
514.00	2.910
515.00	2.908
516.00	2.902
517.00	2.903
518.00	2.904
519.00	2.895
520.00	2.904
521.00	2.908
522.00	2.910
523.00	2.916
524.00	2.907
525.00	2.908
526.00	2.901
527.00	2.908
528.00	2.904
529.00	2.908
530.00	2.907
531.00	2.906
532.00	2.921
533.00	2.907
534.00	2.914
535.00	2.909
536.00	2.840
537.00	2.756
538.00	2.761
539.00	2.764
540.00	2.760
541.00	2.761
542.00	2.765
543.00	2.755
544.00	2.756
545.00	2.755
546.00	2.758
547.00	2.765
548.00	2.759
549.00	2.758
550.00	2.755
551.00	2.752
552.00	2.752
553.00	2.747
554.00	2.747
555.00	2.746
556.00	2.742
557.00	2.725
558.00	2.691
559.00	2.629
560.00	2.515
561.00	2.339
562.00	2.123
563.00	1.893
564.00	1.663
565.00	1.445
566.00	1.254
567.00	1.089
568.00	0.941
569.00	0.814
570.00	0.703
571.00	0.605
572.00	0.525
573.00	0.455
574.00	0.394
575.00	0.343
576.00	0.301
577.00	0.264
578.00	0.233
579.00	0.208
580.00	0.185
581.00	0.166
582.00	0.150
583.00	0.136
584.00	0.125
585.00	0.115
586.00	0.107
587.00	0.100
588.00	0.094
589.00	0.089
590.00	0.084
591.00	0.080
592.00	0.077
593.00	0.074
594.00	0.072
595.00	0.070
596.00	0.068
597.00	0.067
598.00	0.065
599.00	0.064
600.00	0.063
601.00	0.062
602.00	0.062
603.00	0.061
604.00	0.060
605.00	0.059
606.00	0.059
607.00	0.059
608.00	0.058
609.00	0.058
610.00	0.057
611.00	0.057
612.00	0.057
613.00	0.056
614.00	0.056
615.00	0.056
616.00	0.056
617.00	0.056
618.00	0.055
619.00	0.055
620.00	0.055
621.00	0.055
622.00	0.055
623.00	0.055
624.00	0.054
625.00	0.054
626.00	0.054
627.00	0.054
628.00	0.054
629.00	0.054
630.00	0.054
631.00	0.053
632.00	0.053
633.00	0.053
634.00	0.053
635.00	0.053
636.00	0.052
637.00	0.052
638.00	0.052
639.00	0.052
640.00	0.052
641.00	0.052
642.00	0.052
643.00	0.052
644.00	0.052
645.00	0.052
646.00	0.052
647.00	0.052
648.00	0.052
649.00	0.052
650.00	0.052
651.00	0.051
652.00	0.051
653.00	0.051
654.00	0.051
655.00	0.051
656.00	0.051
657.00	0.051
658.00	0.051
659.00	0.051
660.00	0.051
661.00	0.051
662.00	0.050
663.00	0.050
664.00	0.050
665.00	0.050
666.00	0.050
667.00	0.050
668.00	0.050
669.00	0.050
670.00	0.050
671.00	0.050
672.00	0.049
673.00	0.049
674.00	0.049
675.00	0.049
676.00	0.049
677.00	0.049
678.00	0.049
679.00	0.049
680.00	0.049
681.00	0.049
682.00	0.049
683.00	0.049
684.00	0.049
685.00	0.049
686.00	0.049
687.00	0.049
688.00	0.049
689.00	0.049
690.00	0.049
691.00	0.049
692.00	0.049
693.00	0.049
694.00	0.049
695.00	0.049
696.00	0.049
697.00	0.049
698.00	0.049
699.00	0.049
700.00	0.049
701.00	0.049
702.00	0.049
703.00	0.049
704.00	0.049
705.00	0.049
706.00	0.049
707.00	0.049
708.00	0.049
709.00	0.049
710.00	0.049
711.00	0.049
712.00	0.049
713.00	0.049
714.00	0.049
715.00	0.049
716.00	0.049
717.00	0.049
718.00	0.049
719.00	0.049
720.00	0.049
721.00	0.049
722.00	0.049
723.00	0.049
724.00	0.049
725.00	0.049
726.00	0.049
727.00	0.049
728.00	0.049
729.00	0.049
730.00	0.049
731.00	0.049
732.00	0.049
733.00	0.048
734.00	0.048
735.00	0.048
736.00	0.048
737.00	0.048
738.00	0.048
739.00	0.048
740.00	0.048
741.00	0.048
742.00	0.048
743.00	0.048
744.00	0.048
745.00	0.048
746.00	0.047
747.00	0.047
748.00	0.047
749.00	0.047
750.00	0.047
751.00	0.047
752.00	0.047
753.00	0.047
754.00	0.047
755.00	0.046
756.00	0.046
757.00	0.046
758.00	0.046
759.00	0.046
760.00	0.043
761.00	0.042
762.00	0.043
763.00	0.043
764.00	0.042
765.00	0.042
766.00	0.042
767.00	0.042
768.00	0.042
769.00	0.042
770.00	0.042
771.00	0.042
772.00	0.042
773.00	0.042
774.00	0.042
775.00	0.042
776.00	0.042
777.00	0.041
778.00	0.041
779.00	0.041
780.00	0.041
781.00	0.041
782.00	0.041
783.00	0.041
784.00	0.041
785.00	0.041
786.00	0.041
787.00	0.041
788.00	0.041
789.00	0.041
790.00	0.041
791.00	0.041
792.00	0.041
793.00	0.041
794.00	0.041
795.00	0.041
796.00	0.041
797.00	0.041
798.00	0.041
799.00	0.041
800.00	0.041
801.00	0.040
802.00	0.041
803.00	0.040
804.00	0.040
805.00	0.040
806.00	0.040
807.00	0.040
808.00	0.041
809.00	0.040
810.00	0.040
811.00	0.040
812.00	0.040
813.00	0.040
814.00	0.040
815.00	0.040
816.00	0.040
817.00	0.040
818.00	0.040
819.00	0.040
820.00	0.040
821.00	0.040
822.00	0.040
823.00	0.040
824.00	0.040
825.00	0.040
826.00	0.040
827.00	0.040
828.00	0.040
829.00	0.040
830.00	0.040
831.00	0.040
832.00	0.040
833.00	0.040
834.00	0.040
835.00	0.040
836.00	0.040
837.00	0.040
838.00	0.040
839.00	0.040
840.00	0.040
841.00	0.040
842.00	0.040
843.00	0.040
844.00	0.040
845.00	0.040
846.00	0.040
847.00	0.040
848.00	0.040
849.00	0.040
850.00	0.040
851.00	0.040
852.00	0.040
853.00	0.040
854.00	0.040
855.00	0.040
856.00	0.040
857.00	0.040
858.00	0.040
859.00	0.040
860.00	0.040
861.00	0.040
862.00	0.040
863.00	0.040
864.00	0.040
865.00	0.040
866.00	0.040
867.00	0.040
868.00	0.041
869.00	0.041
870.00	0.041
871.00	0.041
872.00	0.041
873.00	0.041
874.00	0.041
875.00	0.041
876.00	0.041
877.00	0.041
878.00	0.041
879.00	0.041
880.00	0.041
881.00	0.041
882.00	0.041
883.00	0.041
884.00	0.041
885.00	0.041
886.00	0.041
887.00	0.041
888.00	0.041
889.00	0.041
890.00	0.041
891.00	0.042
892.00	0.042
893.00	0.042
894.00	0.042
895.00	0.042
896.00	0.042
897.00	0.042
898.00	0.042
899.00	0.043
900.00	0.043
901.00	0.043
902.00	0.043
903.00	0.043
904.00	0.043
905.00	0.043
906.00	0.043
907.00	0.043
908.00	0.043
909.00	0.043
910.00	0.043
911.00	0.043
912.00	0.043
913.00	0.043
914.00	0.043
915.00	0.043
916.00	0.043
917.00	0.043
918.00	0.043
919.00	0.043
920.00	0.043
921.00	0.043
922.00	0.042
923.00	0.042
924.00	0.042
925.00	0.042
926.00	0.042
927.00	0.042
928.00	0.042
929.00	0.042
930.00	0.042
931.00	0.042
932.00	0.042
933.00	0.042
934.00	0.042
935.00	0.042
936.00	0.042
937.00	0.042
938.00	0.042
939.00	0.042
940.00	0.042
941.00	0.042
942.00	0.042
943.00	0.042
944.00	0.042
945.00	0.042
946.00	0.042
947.00	0.042
948.00	0.042
949.00	0.041
950.00	0.041
951.00	0.042
952.00	0.041
953.00	0.041
954.00	0.042
955.00	0.041
956.00	0.041
957.00	0.041
958.00	0.041
959.00	0.041
960.00	0.042
961.00	0.041
962.00	0.041
963.00	0.042
964.00	0.041
965.00	0.042
966.00	0.041
967.00	0.042
968.00	0.042
969.00	0.042
970.00	0.042
971.00	0.042
972.00	0.042
973.00	0.042
974.00	0.042
975.00	0.042
976.00	0.042
977.00	0.042
978.00	0.042
979.00	0.042
980.00	0.042
981.00	0.042
982.00	0.042
983.00	0.042
984.00	0.042
985.00	0.042
986.00	0.042
987.00	0.042
988.00	0.042
989.00	0.042
990.00	0.042
991.00	0.042
992.00	0.042
993.00	0.042
994.00	0.042
995.00	0.042
996.00	0.042
997.00	0.042
998.00	0.042
999.00	0.042
1000.00	0.042
1001.00	0.042
1002.00	0.042
1003.00	0.042
1004.00	0.043
1005.00	0.043
1006.00	0.043
1007.00	0.043
1008.00	0.043
1009.00	0.043
1010.00	0.043
1011.00	0.043
1012.00	0.043
1013.00	0.043
1014.00	0.043
1015.00	0.043
1016.00	0.043
1017.00	0.043
1018.00	0.043
1019.00	0.043
1020.00	0.043
1021.00	0.043
1022.00	0.043
1023.00	0.043
1024.00	0.043
1025.00	0.043
1026.00	0.043
1027.00	0.043
1028.00	0.043
1029.00	0.043
1030.00	0.043
1031.00	0.043
1032.00	0.043
1033.00	0.043
1034.00	0.043
1035.00	0.043
1036.00	0.043
1037.00	0.043
1038.00	0.043
1039.00	0.043
1040.00	0.043
1041.00	0.043
1042.00	0.043
1043.00	0.043
1044.00	0.043
1045.00	0.043
1046.00	0.043
1047.00	0.043
1048.00	0.043
1049.00	0.043
1050.00	0.043
1051.00	0.043
1052.00	0.043
1053.00	0.043
1054.00	0.043
1055.00	0.043
1056.00	0.043
1057.00	0.043
1058.00	0.043
1059.00	0.043
1060.00	0.043
1061.00	0.043
1062.00	0.043
1063.00	0.042
1064.00	0.042
1065.00	0.042
1066.00	0.042
1067.00	0.042
1068.00	0.042
1069.00	0.042
1070.00	0.042
1071.00	0.042
1072.00	0.042
1073.00	0.042
1074.00	0.042
1075.00	0.042
1076.00	0.042
1077.00	0.042
1078.00	0.042
1079.00	0.042
1080.00	0.042
1081.00	0.042
1082.00	0.042
1083.00	0.042
1084.00	0.042
1085.00	0.042
1086.00	0.042
1087.00	0.042
1088.00	0.042
1089.00	0.042
1090.00	0.042
1091.00	0.042
1092.00	0.042
1093.00	0.042
1094.00	0.042
1095.00	0.042
1096.00	0.042
1097.00	0.042
1098.00	0.042
1099.00	0.042
1100.00	0.042
